lsmMagX,lsmMagY,lsmMagZ,mpuAccelX,mpuAccelY,mpuAccelZ,mpuGyroX,mpuGyroY,mpuGyroZ,mpuTemp,pressure,temperature
,,,-1.4451172351837158,2.545703172683716,78.3976058959961,-0.2476740926504135,0.09001488238573074,0.13209284842014313,27.212352752685547,98344.3515625,24.190000534057617
,,,-1.4977538585662842,2.490673780441284,78.3976058959961,-0.26365306973457336,0.07510117441415787,0.12463599443435669,27.30647087097168,98345.0234375,24.209999084472656
,,,-1.4451172351837158,2.526562452316284,78.3976058959961,-0.2681804299354553,0.062317997217178345,0.11371702700853348,27.212352752685547,98345.6328125,24.229999542236328
,,,-1.5695312023162842,2.473925828933716,78.3976058959961,-0.28469204902648926,0.03222426399588585,0.10732543468475342,27.30647087097168,98345.8046875,24.239999771118164
,,,-1.5647461414337158,2.476318359375,78.3976058959961,-0.31478577852249146,-0.0050600082613527775,0.09747173637151718,27.212352752685547,,
,,,-1.502539038658142,2.3854002952575684,78.3976058959961,-0.34834161400794983,-0.03355584293603897,0.08708540350198746,27.212352752685547,,
,,,-1.4929687976837158,2.3136229515075684,78.3976058959961,-0.3898869454860687,-0.0620516799390316,0.0782969668507576,27.118234634399414,,
,,,-1.6293456554412842,2.354296922683716,78.3976058959961,-0.4506070613861084,-0.10439595580101013,0.06551378965377808,27.212352752685547,,
,,,-1.5886719226837158,2.330371141433716,78.3976058959961,-0.5099955797195435,-0.14833813905715942,0.05006745085120201,27.212352752685547,,
,,,-1.4977538585662842,2.258593797683716,78.3976058959961,-0.5789714455604553,-0.19254663586616516,0.0298274178057909,27.30647087097168,,
,,,-1.478613257408142,2.1604981422424316,78.3976058959961,-0.6450179219245911,-0.2343582808971405,0.013049494475126266,27.212352752685547,,
,,,-1.33984375,1.9762694835662842,78.3976058959961,-0.7155916690826416,-0.2700446546077728,-0.0021305298432707787,27.212352752685547,,
,,,-1.3733398914337158,1.9523437023162842,78.3976058959961,-0.7952202558517456,-0.30519840121269226,-0.019174767658114433,27.212352752685547,,
,,,-1.347021460533142,1.897314429283142,78.3976058959961,-0.8599351048469543,-0.3320963382720947,-0.034354791045188904,27.212352752685547,,
,,,-1.256103515625,1.806396484375,78.3976058959961,-0.921454131603241,-0.3440805673599243,-0.04793692007660866,27.118234634399414,,
,,,-1.2178223133087158,1.717871069908142,78.3976058959961,-0.9853700399398804,-0.36405426263809204,-0.060453783720731735,27.212352752685547,,
,,,-1.2776367664337158,1.727441430091858,78.3976058959961,-1.0381006002426147,-0.3837616741657257,-0.073503278195858,27.212352752685547,,
,,,-1.069482445716858,1.6484863758087158,78.3976058959961,-1.0900323390960693,-0.40453433990478516,-0.07376959174871445,27.212352752685547,,
,,,-1.208251953125,1.526464819908142,78.3976058959961,-1.1595408916473389,-0.4029364585876465,-0.07217169553041458,27.212352752685547,,
,,,-1.428369164466858,1.495361328125,78.3976058959961,-1.2381041049957275,-0.43995440006256104,-0.07190538197755814,27.30647087097168,,
,,,-1.3853027820587158,1.380517601966858,78.3976058959961,-1.2942968606948853,-0.4740428626537323,-0.07323696464300156,27.30647087097168,,
,,,-1.4140136241912842,1.327880859375,78.3976058959961,-1.340635895729065,-0.5281050801277161,-0.07936223596334457,27.30647087097168,,
,,,-1.4857909679412842,1.26806640625,78.3976058959961,-1.394964337348938,-0.5874935984611511,-0.08096013218164444,27.30647087097168,,
,,,-0.966601550579071,2.10546875,78.3976058959961,-1.2745894193649292,-0.6213157773017883,-0.03781690448522568,27.30647087097168,,
,,,-1.7681152820587158,0.523974597454071,78.3976058959961,-1.614142656326294,-0.7070695757865906,-0.11691281944513321,27.30647087097168,,
,,,-0.959423840045929,1.327880859375,78.3976058959961,-1.5709993839263916,-0.76352858543396,-0.11664650589227676,27.30647087097168,,
,,,-2.1365723609924316,1.8805663585662842,78.3976058959961,-1.5331825017929077,-0.8524782061576843,-0.0988033190369606,27.30647087097168,,
,,,-1.583886742591858,1.954736351966858,78.3976058959961,-1.5920383930206299,-0.9643310308456421,-0.11824440211057663,27.212352752685547,,
,,,-1.0503418445587158,1.153222680091858,78.3976058959961,-1.616006851196289,-0.9773805141448975,-0.13528864085674286,27.212352752685547,,
,,,-1.0623047351837158,1.3972656726837158,78.3976058959961,-1.6194689273834229,-1.0253174304962158,-0.1651160567998886,27.30647087097168,,
,,,-0.744091808795929,1.442724585533142,78.3976058959961,-1.6277247667312622,-1.0285133123397827,-0.18162766098976135,27.30647087097168,,
,,,-0.6627441644668579,1.404443383216858,78.3976058959961,-1.6181373596191406,-1.0532807111740112,-0.2053298056125641,27.30647087097168,,
,,,-0.5311523675918579,1.1149413585662842,78.3976058959961,-1.596832036972046,-1.0375679731369019,-0.22024351358413696,27.30647087097168,,
,,,-0.4498046934604645,1.045556664466858,78.3976058959961,-1.564607858657837,-0.9992184638977051,-0.23888565599918365,27.212352752685547,,
,,,-0.4498046934604645,1.1101562976837158,78.3976058959961,-1.5289214849472046,-0.977114200592041,-0.24953830242156982,27.30647087097168,,
,,,-0.42109376192092896,1.016845703125,78.3976058959961,-1.48444664478302,-0.9355688691139221,-0.26711517572402954,27.212352752685547,,
,,,-0.540722668170929,1.155615210533142,78.3976058959961,-1.4165359735488892,-0.8956214785575867,-0.27803415060043335,27.212352752685547,,
,,,-0.5813964605331421,1.3876953125,78.3976058959961,-1.3369073867797852,-0.8551414012908936,-0.28176257014274597,27.400588989257812,,
,,,-0.6866699457168579,1.4570801258087158,78.3976058959961,-1.260474681854248,-0.818123459815979,-0.2801646590232849,27.30647087097168,,
,,,-0.823046863079071,1.33984375,78.3976058959961,-1.1653997898101807,-0.7768444418907166,-0.26711517572402954,27.212352752685547,,
,,,-1.1101562976837158,1.351806640625,78.3976058959961,-1.0697922706604004,-0.7257117033004761,-0.24288038909435272,27.30647087097168,98346.28125,24.270000457763672
,,,-1.236962914466858,1.1962890625,78.3976058959961,-0.96859210729599,-0.6732473969459534,-0.2138519287109375,27.30647087097168,,
,,,-1.710693359375,1.088623046875,78.3976058959961,-0.8692561388015747,-0.6194515228271484,-0.1723065972328186,27.30647087097168,,
,,,-1.949951171875,1.083837866783142,78.3976058959961,-0.7536749243736267,-0.5587314367294312,-0.12357072532176971,27.30647087097168,,
,,,-2.0982909202575684,0.64599609375,78.3976058959961,-0.6378273367881775,-0.5099955797195435,-0.03941480070352554,27.30647087097168,,
,,,-2.450000047683716,0.7345215082168579,78.3976058959961,-0.5398229956626892,-0.4383564889431,0.012250546365976334,27.30647087097168,,
,,,-2.7227540016174316,1.117334008216858,78.3976058959961,-0.46525445580482483,-0.35020583868026733,0.06977485120296478,27.212352752685547,,
,,,-2.9237303733825684,1.1747558116912842,78.3976058959961,-0.43036702275276184,-0.2655172646045685,0.12330441176891327,27.30647087097168,,
,,,-2.7203612327575684,1.1221191883087158,78.3976058959961,-0.3824301064014435,-0.1800297647714615,0.1856224089860916,27.30647087097168,,
,,,-2.6796875,0.88525390625,78.3976058959961,-0.35340163111686707,-0.05459482595324516,0.24953830242156982,27.30647087097168,,
,,,-2.729931592941284,0.930712878704071,78.3976058959961,-0.331297367811203,0.0253000408411026,0.3139868378639221,27.30647087097168,,
,,,-2.610302686691284,0.8541504144668579,78.3976058959961,-0.3054647147655487,0.08948224782943726,0.3789680004119873,27.30647087097168,,
,,,-2.251415967941284,0.93310546875,78.3976058959961,-0.26897937059402466,0.15872447192668915,0.44421544671058655,27.30647087097168,,
,,,-2.2059569358825684,1.033593773841858,78.3976058959961,-0.2271677404642105,0.2133193016052246,0.5054681897163391,27.212352752685547,,
,,,-1.981054663658142,1.0742676258087158,78.3976058959961,-0.18508978188037872,0.2559298872947693,0.559264063835144,27.30647087097168,,
,,,-1.787255883216858,1.024023413658142,78.3976058959961,-0.14434339106082916,0.30093732476234436,0.6082662343978882,27.212352752685547,,
,,,-1.4259765148162842,1.131689429283142,78.3976058959961,-0.09827068448066711,0.34008580446243286,0.6458168625831604,27.212352752685547,,
,,,-1.335058569908142,1.0981934070587158,78.3976058959961,-0.05166534706950188,0.37444061040878296,0.6668558120727539,27.30647087097168,,
,,,-1.033593773841858,1.1986815929412842,78.3976058959961,-0.024767408147454262,0.3952132761478424,0.6780411005020142,27.400588989257812,,
,,,-0.942675769329071,1.2537109851837158,78.3976058959961,-0.012250546365976334,0.3992080092430115,0.678573727607727,27.30647087097168,,
,,,-0.8565429449081421,1.4331543445587158,78.3976058959961,-0.025033725425601006,0.3861585259437561,0.6652579307556152,27.30647087097168,,
,,,-0.660351574420929,1.495361328125,78.3976058959961,-0.06604642421007156,0.3488742411136627,0.6468821167945862,27.30647087097168,,
,,,-0.5431152582168579,1.4331543445587158,78.3976058959961,-0.10759175568819046,0.2897520363330841,0.6231799721717834,27.30647087097168,,
,,,-0.490478515625,1.440332055091858,78.3976058959961,-0.1680455356836319,0.21118876338005066,0.5834988355636597,27.400588989257812,,
,,,-0.3828125,1.4020507335662842,78.3976058959961,-0.22130878269672394,0.11771176755428314,0.5462145805358887,27.30647087097168,,
,,,-0.23686523735523224,1.358984351158142,78.3976058959961,-0.27430570125579834,0.011185280978679657,0.49241870641708374,27.212352752685547,,
,,,-0.08852539211511612,1.3613770008087158,78.3976058959961,-0.3278352618217468,-0.09347699582576752,0.43755754828453064,27.30647087097168,,
,,,-0.035888671875,1.244140625,78.3976058959961,-0.37737008929252625,-0.2018676996231079,0.376038521528244,27.30647087097168,,
,,,0.16987304389476776,1.251318335533142,78.3976058959961,-0.4191817343235016,-0.3078615665435791,0.31478577852249146,27.30647087097168,,
,,,0.1435546875,1.1484375,78.3976058959961,-0.45939549803733826,-0.41172489523887634,0.2543320059776306,27.30647087097168,,
,,,0.17705078423023224,0.995312511920929,78.3976058959961,-0.5081313252449036,-0.5163871645927429,0.19920453429222107,27.30647087097168,,
,,,0.23686523735523224,0.8900390863418579,78.3976058959961,-0.5472798347473145,-0.6255767941474915,0.14807182550430298,27.30647087097168,,
,,,0.3062500059604645,0.7369140386581421,78.3976058959961,-0.594151496887207,-0.7257117033004761,0.10279805958271027,27.30647087097168,,
,,,0.2703613340854645,0.679492175579071,78.3976058959961,-0.6468821167945862,-0.8250476717948914,0.05992114916443825,27.30647087097168,,
,,,0.28471678495407104,0.751269519329071,78.3976058959961,-0.7052053809165955,-0.9179919958114624,0.01651160605251789,27.400588989257812,,
,,,0.27753907442092896,0.861328125,78.3976058959961,-0.7680559754371643,-1.0098711252212524,-0.029561100527644157,27.30647087097168,,
,,,0.3636718690395355,1.081445336341858,78.3976058959961,-0.8442224264144897,-1.0980217456817627,-0.07936223596334457,27.30647087097168,,
,,,0.40434569120407104,1.131689429283142,78.3976058959961,-0.9145299196243286,-1.1749871969223022,-0.12277177721261978,27.30647087097168,,
,,,0.48090821504592896,1.141259789466858,78.3976058959961,-0.983239471912384,-1.2415661811828613,-0.16671395301818848,27.212352752685547,,
,,,0.504833996295929,1.0862305164337158,78.3976058959961,-1.0386332273483276,-1.2956284284591675,-0.20080243051052094,27.30647087097168,,
,,,0.535937488079071,0.9642089605331421,78.3976058959961,-1.0777817964553833,-1.3345105648040771,-0.2234393060207367,27.400588989257812,98346.7578125,24.280000686645508
,,,0.6627441644668579,0.95703125,78.3976058959961,-1.10867440700531,-1.3496906757354736,-0.24314671754837036,27.212352752685547,,
,,,0.588574230670929,0.93310546875,78.3976058959961,-1.124120831489563,-1.354750633239746,-0.2583267390727997,27.30647087097168,,
,,,0.40913087129592896,1.0670897960662842,78.3976058959961,-1.1321102380752563,-1.357147455215454,-0.2759036123752594,27.30647087097168,,
,,,0.179443359375,1.021630883216858,78.3976058959961,-1.1584755182266235,-1.3555495738983154,-0.28575730323791504,27.30647087097168,,
,,,0.13637694716453552,1.0312011241912842,78.3976058959961,-1.1914987564086914,-1.3630064725875854,-0.28948572278022766,27.30647087097168,,
,,,-0.21533203125,0.8445800542831421,78.3976058959961,-1.2301145792007446,-1.3624738454818726,-0.2956109941005707,27.212352752685547,,
,,,-0.40673828125,0.648388683795929,78.3976058959961,-1.2759209871292114,-1.3776538372039795,-0.29534468054771423,27.212352752685547,,
,,,-0.799121081829071,0.5431152582168579,78.3976058959961,-1.3137378692626953,-1.4000244140625,-0.2902846932411194,27.30647087097168,,
,,,-1.009667992591858,0.39238280057907104,78.3976058959961,-1.3438316583633423,-1.4311833381652832,-0.2806972861289978,27.400588989257812,,
,,,-1.272851586341858,0.2392578125,78.3976058959961,-1.3603432178497314,-1.4700655937194824,-0.2601909637451172,27.30647087097168,,
,,,-1.3781249523162842,0.18901367485523224,78.3976058959961,-1.377387523651123,-1.4929687976837158,-0.2410161793231964,27.30647087097168,,
,,,-1.547998070716858,0.09809570014476776,78.3976058959961,-1.3973612785339355,-1.5097466707229614,-0.2229066789150238,27.30647087097168,,
,,,-1.7705078125,-0.11245117336511612,78.3976058959961,-1.4114760160446167,-1.522263526916504,-0.20266664028167725,27.30647087097168,,
,,,-1.837499976158142,-0.179443359375,78.3976058959961,-1.4178675413131714,-1.5390413999557495,-0.18482345342636108,27.400588989257812,,
,,,-1.969091773033142,-0.11484374850988388,78.3976058959961,-1.412807583808899,-1.5544878244400024,-0.16644763946533203,27.30647087097168,,
,,,-1.954736351966858,-0.20815429091453552,78.3976058959961,-1.4037528038024902,-1.5773910284042358,-0.1384844332933426,27.30647087097168,,
,,,-2.055224657058716,-0.16987304389476776,78.3976058959961,-1.402421236038208,-1.5936362743377686,-0.10812439024448395,27.30647087097168,,
,,,-2.1581053733825684,0.01914062537252903,78.3976058959961,-1.4090791940689087,-1.596832036972046,-0.073503278195858,27.30647087097168,,
,,,-2.1126465797424316,0.10288085788488388,78.3976058959961,-1.3986928462982178,-1.5808531045913696,-0.031158998608589172,27.212352752685547,,
,,,-1.973876953125,0.20576171576976776,78.3976058959961,-1.3917685747146606,-1.5579499006271362,0.010386332869529724,27.30647087097168,,
,,,-1.813574194908142,0.18662109971046448,78.3976058959961,-1.3816485404968262,-1.5196003913879395,0.062317997217178345,27.400588989257812,,
,,,-1.543212890625,0.3277831971645355,78.3976058959961,-1.3795180320739746,-1.4442328214645386,0.11824440211057663,27.30647087097168,,
,,,-1.3876953125,0.3899902403354645,78.3976058959961,-1.3701969385147095,-1.369930624961853,0.16831184923648834,27.30647087097168,,
,,,-0.9378906488418579,0.20576171576976776,78.3976058959961,-1.3584790229797363,-1.310542106628418,0.21172139048576355,27.30647087097168,,
,,,-0.643603503704071,0.24404296278953552,78.3976058959961,-1.3195968866348267,-1.2290493249893188,0.24740776419639587,27.30647087097168,,
,,,-0.08613280951976776,0.36845701932907104,78.3976058959961,-1.2903021574020386,-1.1731230020523071,0.2783004641532898,27.30647087097168,,
,,,0.227294921875,0.2823242247104645,78.3976058959961,-1.2596757411956787,-1.12358820438385,0.2926815152168274,27.30647087097168,,
,,,0.512011706829071,0.33256834745407104,78.3976058959961,-1.2394356727600098,-1.07431960105896,0.29321417212486267,27.30647087097168,,
,,,0.6268554925918579,0.5263671875,78.3976058959961,-1.2301145792007446,-1.0514163970947266,0.2812299430370331,27.30647087097168,,
,,,0.7608398199081421,0.6268554925918579,78.3976058959961,-1.2112061977386475,-1.0503511428833008,0.2553972601890564,27.30647087097168,,
,,,0.897216796875,0.3780273497104645,78.3976058959961,-1.2266525030136108,-1.049285888671875,0.22264036536216736,27.30647087097168,,
,,,1.057519555091858,0.22011718153953552,78.3976058959961,-1.230380892753601,-1.0820428133010864,0.1933455765247345,27.30647087097168,,
,,,1.1580078601837158,0.07656250149011612,78.3976058959961,-1.2282503843307495,-1.1049460172653198,0.15792551636695862,27.30647087097168,,
,,,1.347021460533142,-0.06220703199505806,78.3976058959961,-1.2423651218414307,-1.141697645187378,0.12037493288516998,27.30647087097168,,
,,,1.3374512195587158,-0.107666015625,78.3976058959961,-1.243430495262146,-1.198689341545105,0.0782969668507576,27.30647087097168,,
,,,1.550390601158142,-0.05024414137005806,78.3976058959961,-1.2447620630264282,-1.2642030715942383,0.0298274178057909,27.30647087097168,,
,,,1.643701195716858,-0.06699218600988388,78.3976058959961,-1.2431641817092896,-1.3379727602005005,-0.02716425433754921,27.30647087097168,,
,,,1.717871069908142,-0.09331054985523224,78.3976058959961,-1.233576774597168,-1.4247918128967285,-0.09081383049488068,27.400588989257812,,
,,,1.758544921875,0.01674804650247097,78.3976058959961,-1.2293156385421753,-1.5121434926986694,-0.15259920060634613,27.400588989257812,,
,,,1.753759741783142,-0.13637694716453552,78.3976058959961,-1.2245219945907593,-1.5941689014434814,-0.20692770183086395,27.30647087097168,98347.6015625,24.309999465942383
,,,1.658056616783142,-0.11723633110523224,78.3976058959961,-1.2173314094543457,-1.6618132591247559,-0.2596583068370819,27.30647087097168,,
,,,1.495361328125,-0.07656250149011612,78.3976058959961,-1.218130350112915,-1.735316514968872,-0.30759522318840027,27.400588989257812,,
,,,1.248925805091858,0.05024414137005806,78.3976058959961,-1.2277177572250366,-1.7973681688308716,-0.34541213512420654,27.400588989257812,,
,,,1.0264160633087158,0.02631836012005806,78.3976058959961,-1.245827317237854,-1.847701907157898,-0.37204375863075256,27.30647087097168,,
,,,0.8541504144668579,-0.06699218600988388,78.3976058959961,-1.283111572265625,-1.8793935775756836,-0.3898869454860687,27.400588989257812,,
,,,0.727343738079071,-0.18183593451976776,78.3976058959961,-1.3339779376983643,-1.897503137588501,-0.39361536502838135,27.30647087097168,,
,,,0.660351574420929,-0.07895507663488388,78.3976058959961,-1.3592779636383057,-1.8863178491592407,-0.39175117015838623,27.30647087097168,,
,,,0.5263671875,0.14594726264476776,78.3976058959961,-1.3584790229797363,-1.9044272899627686,-0.3938817083835602,27.30647087097168,,
,,,0.6029297113418579,-0.0478515625,78.3976058959961,-1.402421236038208,-1.905226230621338,-0.3813648223876953,27.400588989257812,,
,,,0.42827147245407104,-0.5550781488418579,78.3976058959961,-1.4466297626495361,-1.859419822692871,-0.3528690040111542,27.30647087097168,,
,,,0.4617675840854645,-0.8206542730331421,78.3976058959961,-1.4953656196594238,-1.7635459899902344,-0.30573102831840515,27.30647087097168,,
,,,0.4234863221645355,-0.9139648675918579,78.3976058959961,-1.5520910024642944,-1.6578184366226196,-0.24980461597442627,27.30647087097168,,
,,,0.3349609375,-0.88525390625,78.3976058959961,-1.5928373336791992,-1.5403730869293213,-0.19254663586616516,27.400588989257812,,
,,,0.3756347596645355,-0.9498535394668579,78.3976058959961,-1.6002942323684692,-1.4354444742202759,-0.13582126796245575,27.30647087097168,,
,,,0.3995605409145355,-0.882861316204071,78.3976058959961,-1.593902587890625,-1.3470274209976196,-0.09054751694202423,27.400588989257812,,
,,,0.4593749940395355,-1.1221191883087158,78.3976058959961,-1.5675373077392578,-1.2689968347549438,-0.04500744119286537,27.400588989257812,,
,,,0.562255859375,-1.1627929210662842,78.3976058959961,-1.5211982727050781,-1.2120051383972168,-0.009853700175881386,27.400588989257812,,
,,,0.6292480230331421,-1.3853027820587158,78.3976058959961,-1.4650055170059204,-1.1624703407287598,0.03808322176337242,27.30647087097168,,
,,,0.669921875,-1.464257836341858,78.3976058959961,-1.394964337348938,-1.1326428651809692,0.07776433974504471,27.400588989257812,,
,,,0.8541504144668579,-1.5097167491912842,78.3976058959961,-1.3172000646591187,-1.114267110824585,0.11717914044857025,27.30647087097168,,
,,,1.009667992591858,-1.5886719226837158,78.3976058959961,-1.2373051643371582,-1.0934944152832031,0.1547297239303589,27.30647087097168,,
,,,1.2297852039337158,-1.5767090320587158,78.3976058959961,-1.1598072052001953,-1.0844396352767944,0.18455713987350464,27.30647087097168,,
,,,1.435546875,-1.5049316883087158,78.3976058959961,-1.0892333984375,-1.0703248977661133,0.2042645364999771,27.400588989257812,,
,,,1.7322266101837158,-1.435546875,78.3976058959961,-1.0186595916748047,-1.049285888671875,0.21758034825325012,27.30647087097168,,
,,,1.894921898841858,-1.347021460533142,78.3976058959961,-0.9504826068878174,-1.029844880104065,0.22450457513332367,27.30647087097168,,
,,,2.1485352516174316,-1.3015625476837158,78.3976058959961,-0.8839035630226135,-1.0151973962783813,0.22663509845733643,27.30647087097168,,
,,,2.263378858566284,-1.141259789466858,78.3976058959961,-0.8378308415412903,-1.0032131671905518,0.22397194802761078,27.400588989257812,,
,,,2.332763671875,-1.1005859375,78.3976058959961,-0.8130634427070618,-0.9922942519187927,0.22157509624958038,27.30647087097168,,
,,,2.3495116233825684,-1.071874976158142,78.3976058959961,-0.7994812726974487,-0.9968216419219971,0.2157161384820938,27.400588989257812,,
,,,2.3734374046325684,-1.201074242591858,78.3976058959961,-0.7922907471656799,-0.9962890148162842,0.2042645364999771,27.400588989257812,,
,,,2.428466796875,-1.1149413585662842,78.3976058959961,-0.8066718578338623,-1.012534260749817,0.19201399385929108,27.30647087097168,,
,,,2.502636671066284,-1.1340820789337158,78.3976058959961,-0.8287760615348816,-1.0418291091918945,0.17390449345111847,27.30647087097168,,
,,,2.6605467796325684,-1.1484375,78.3976058959961,-0.8617992997169495,-1.079379677772522,0.15339814126491547,27.30647087097168,,
,,,2.861523389816284,-1.0623047351837158,78.3976058959961,-0.9038772583007812,-1.11613130569458,0.1217065155506134,27.30647087097168,,
,,,2.9237303733825684,-0.9043945074081421,78.3976058959961,-0.9475530982017517,-1.1646008491516113,0.08788435161113739,27.400588989257812,,
,,,3.060107469558716,-0.846972644329071,78.3976058959961,-1.0037457942962646,-1.2154672145843506,0.05432850867509842,27.400588989257812,,
,,,3.196484327316284,-0.873291015625,78.3976058959961,-1.0527480840682983,-1.267931580543518,0.010918965563178062,27.400588989257812,,
,,,3.3424315452575684,-0.899609386920929,78.3976058959961,-1.0918965339660645,-1.3054821491241455,-0.03222426399588585,27.400588989257812,,
,,,3.3208985328674316,-0.8326171636581421,78.3976058959961,-1.148621916770935,-1.3387717008590698,-0.07483486086130142,27.400588989257812,,
,,,3.3017578125,-0.861328125,78.3976058959961,-1.2154672145843506,-1.3787190914154053,-0.11478228867053986,27.400588989257812,98347.8984375,24.31999969482422
,,,3.289794921875,-0.983349621295929,78.3976058959961,-1.2692631483078003,-1.4064159393310547,-0.15632762014865875,27.400588989257812,,
,,,3.256298780441284,-1.160400390625,78.3976058959961,-1.3257222175598145,-1.4341129064559937,-0.18748661875724792,27.400588989257812,,
,,,3.122314453125,-1.2776367664337158,78.3976058959961,-1.3813822269439697,-1.4583476781845093,-0.22503720223903656,27.400588989257812,,
,,,2.99072265625,-1.344628930091858,78.3976058959961,-1.4426349401474,-1.4783213138580322,-0.2543320059776306,27.400588989257812,,
,,,2.8304200172424316,-1.4570801258087158,78.3976058959961,-1.5036213397979736,-1.479919195175171,-0.28229519724845886,27.400588989257812,,
,,,2.5289549827575684,-1.6293456554412842,78.3976058959961,-1.5611456632614136,-1.4751255512237549,-0.29534468054771423,27.30647087097168,,
,,,2.3136229515075684,-1.662841796875,78.3976058959961,-1.6405079364776611,-1.4700655937194824,-0.302268922328949,27.30647087097168,,
,,,2.0863280296325684,-1.878173828125,78.3976058959961,-1.7041574716567993,-1.4439665079116821,-0.30280154943466187,27.400588989257812,,
,,,1.93798828125,-2.048046827316284,78.3976058959961,-1.7630133628845215,-1.4184001684188843,-0.2892194092273712,27.400588989257812,,
,,,1.873388648033142,-2.275341749191284,78.3976058959961,-1.8335871696472168,-1.382713794708252,-0.2697783410549164,27.400588989257812,,
,,,1.897314429283142,-2.4930663108825684,78.3976058959961,-1.8767304420471191,-1.3409022092819214,-0.24527724087238312,27.400588989257812,,
,,,1.89013671875,-2.572021484375,78.3976058959961,-1.9049599170684814,-1.2961610555648804,-0.2162487804889679,27.30647087097168,,
,,,2.048046827316284,-2.524169921875,78.3976058959961,-1.916944146156311,-1.2538167238235474,-0.19174768030643463,27.400588989257812,,
,,,1.9595215320587158,-2.5289549827575684,78.3976058959961,-1.914547324180603,-1.2159998416900635,-0.1680455356836319,27.30647087097168,,
,,,1.9762694835662842,-2.526562452316284,78.3976058959961,-1.889513611793518,-1.1819113492965698,-0.1475391834974289,27.30647087097168,,
,,,2.0049805641174316,-2.6031250953674316,78.3976058959961,-1.8602187633514404,-1.1512850522994995,-0.1241033598780632,27.400588989257812,,
,,,2.103076219558716,-2.801708936691284,78.3976058959961,-1.8200050592422485,-1.1097396612167358,-0.10386332869529724,27.400588989257812,,
,,,2.251415967941284,-2.978759765625,78.3976058959961,-1.7718018293380737,-1.0657975673675537,-0.07323696464300156,27.400588989257812,,
,,,2.335156202316284,-3.0696778297424316,78.3976058959961,-1.723598599433899,-1.019991159439087,-0.04740428924560547,27.400588989257812,,
,,,2.4236817359924316,-3.0696778297424316,78.3976058959961,-1.6418395042419434,-0.974717378616333,-0.02210424654185772,27.30647087097168,,
,,,2.550488233566284,-3.100781202316284,78.3976058959961,-1.5755268335342407,-0.9358351826667786,-0.006924221757799387,27.30647087097168,,
,,,2.670117139816284,-3.050537109375,78.3976058959961,-1.5140076875686646,-0.908670961856842,0.004793691914528608,27.400588989257812,,
,,,2.789746046066284,-3.0457520484924316,78.3976058959961,-1.4370423555374146,-0.8908277750015259,0.011451597325503826,27.30647087097168,,
,,,2.928515672683716,-2.921337842941284,78.3976058959961,-1.3520874977111816,-0.8735172152519226,0.010918965563178062,27.400588989257812,,
,,,3.1055665016174316,-2.856738328933716,78.3976058959961,-1.2740567922592163,-0.851679265499115,0.012250546365976334,27.30647087097168,,
,,,3.1175293922424316,-2.883056640625,78.3976058959961,-1.2146682739257812,-0.8396950364112854,0.012250546365976334,27.400588989257812,,
,,,3.1294922828674316,-2.89501953125,78.3976058959961,-1.1419639587402344,-0.8197213411331177,0.010918965563178062,27.400588989257812,,
,,,3.136669874191284,-2.8232421875,78.3976058959961,-1.0852385759353638,-0.791758120059967,0.009321067482233047,27.400588989257812,,
,,,3.1103515625,-2.70361328125,78.3976058959961,-1.026648998260498,-0.7502127885818481,0.012516862712800503,27.30647087097168,,
,,,3.239550828933716,-2.509814500808716,78.3976058959961,-0.9736521244049072,-0.7084011435508728,0.019973717629909515,27.400588989257812,,
,,,3.1103515625,-2.41650390625,78.3976058959961,-0.9347699284553528,-0.663926362991333,0.0253000408411026,27.400588989257812,,
,,,3.100781202316284,-2.306445360183716,78.3976058959961,-0.9201225638389587,-0.6146578192710876,0.035153742879629135,27.400588989257812,,
,,,2.988330125808716,-2.258593797683716,78.3976058959961,-0.9004151225090027,-0.5747104287147522,0.043409544974565506,27.400588989257812,,
,,,2.787353515625,-2.055224657058716,78.3976058959961,-0.9089372754096985,-0.5225124359130859,0.05459482595324516,27.400588989257812,,
,,,2.789746046066284,-1.918847680091858,78.3976058959961,-0.9323731064796448,-0.49667975306510925,0.06125273182988167,27.30647087097168,,
,,,2.784960985183716,-1.918847680091858,78.3976058959961,-0.9731194972991943,-0.45859652757644653,0.06764432042837143,27.400588989257812,,
,,,2.7706055641174316,-1.835107445716858,78.3976058959961,-1.0277142524719238,-0.4332965016365051,0.07403591275215149,27.30647087097168,,
,,,2.7825684547424316,-1.9140625,78.3976058959961,-1.098820686340332,-0.4077301323413849,0.08362329751253128,27.30647087097168,,
,,,2.906982421875,-1.9834473133087158,78.3976058959961,-1.1672639846801758,-0.4095943570137024,0.08628645539283752,27.400588989257812,,
,,,3.1055665016174316,-1.9355957508087158,78.3976058959961,-1.2295819520950317,-0.3896206319332123,0.08309066295623779,27.30647087097168,98348.640625,24.34000015258789
,,,3.239550828933716,-1.93798828125,78.3976058959961,-1.2980252504348755,-0.3752395510673523,0.07696539163589478,27.400588989257812,,
,,,3.37353515625,-1.8327147960662842,78.3976058959961,-1.3752570152282715,-0.3709785044193268,0.06418220698833466,27.494705200195312,,
,,,3.4931640625,-1.825537085533142,78.3976058959961,-1.4287865161895752,-0.3542005717754364,0.04420849308371544,27.494705200195312,,
,,,3.5242676734924316,-1.8446776866912842,78.3976058959961,-1.4777886867523193,-0.3371563255786896,0.009853700175881386,27.400588989257812,,
,,,3.541015625,-1.7800781726837158,78.3976058959961,-1.5251929759979248,-0.3320963382720947,-0.029561100527644157,27.400588989257812,,
,,,3.5123047828674316,-1.8087890148162842,78.3976058959961,-1.5552867650985718,-0.33156371116638184,-0.06950853765010834,27.494705200195312,,
,,,3.502734422683716,-1.9619140625,78.3976058959961,-1.590973138809204,-0.3499395251274109,-0.1174454540014267,27.400588989257812,,
,,,3.3663573265075684,-2.1724610328674316,78.3976058959961,-1.6237300634384155,-0.3826964199542999,-0.16431711614131927,27.30647087097168,,
,,,3.4046387672424316,-2.2418456077575684,78.3976058959961,-1.6639437675476074,-0.3994743227958679,-0.20932455360889435,27.400588989257812,,
,,,3.280224561691284,-2.356689453125,78.3976058959961,-1.7022932767868042,-0.4239754378795624,-0.25513094663619995,27.30647087097168,,
,,,3.2850098609924316,-2.394970655441284,78.3976058959961,-1.7331860065460205,-0.4348943829536438,-0.28575730323791504,27.494705200195312,,
,,,3.1869139671325684,-2.476318359375,78.3976058959961,-1.7619481086730957,-0.43942177295684814,-0.31052470207214355,27.400588989257812,,
,,,3.098388671875,-2.634228467941284,78.3976058959961,-1.7763291597366333,-0.4247743785381317,-0.33103105425834656,27.400588989257812,,
,,,3.124706983566284,-2.9117674827575684,78.3976058959961,-1.7720681428909302,-0.40932804346084595,-0.33635738492012024,27.400588989257812,,
,,,3.0194334983825684,-3.1031737327575684,78.3976058959961,-1.752893328666687,-0.38695746660232544,-0.3414174020290375,27.30647087097168,,
,,,2.8423829078674316,-3.1629881858825684,78.3976058959961,-1.7395775318145752,-0.3440805673599243,-0.33822160959243774,27.400588989257812,,
,,,2.706005811691284,-3.2730469703674316,78.3976058959961,-1.7209354639053345,-0.2865562438964844,-0.33236265182495117,27.400588989257812,,
,,,2.6246581077575684,-3.361572265625,78.3976058959961,-1.7038911581039429,-0.21891193091869354,-0.32250896096229553,27.400588989257812,,
,,,2.509814500808716,-3.478808641433716,78.3976058959961,-1.6876459121704102,-0.15259920060634613,-0.3107910454273224,27.400588989257812,,
,,,2.404541015625,-3.5936522483825684,78.3976058959961,-1.670601725578308,-0.08122644573450089,-0.2897520363330841,27.494705200195312,,
,,,2.2801270484924316,-3.7132811546325684,78.3976058959961,-1.6721996068954468,-0.017576871439814568,-0.2687130570411682,27.400588989257812,,
,,,2.10546875,-3.730029344558716,78.3976058959961,-1.6751290559768677,0.027696887031197548,-0.24501092731952667,27.400588989257812,,
,,,2.0504393577575684,-3.663037061691284,78.3976058959961,-1.6836512088775635,0.06737800687551498,-0.2234393060207367,27.400588989257812,,
,,,2.03369140625,-3.6845703125,78.3976058959961,-1.6913743019104004,0.09853700548410416,-0.19627505540847778,27.400588989257812,,
,,,1.981054663658142,-3.818554639816284,78.3976058959961,-1.7049564123153687,0.12357072532176971,-0.1728392243385315,27.30647087097168,,
,,,2.107861280441284,-3.765918016433716,78.3976058959961,-1.713744878768921,0.1547297239303589,-0.1547297239303589,27.494705200195312,,
,,,2.1461424827575684,-3.8089842796325684,78.3976058959961,-1.7190712690353394,0.19174768030643463,-0.13448968529701233,27.400588989257812,,
,,,2.258593797683716,-3.765918016433716,78.3976058959961,-1.7246638536453247,0.23409196734428406,-0.10918965190649033,27.30647087097168,,
,,,2.404541015625,-3.777880907058716,78.3976058959961,-1.7291911840438843,0.2703109681606293,-0.09187909960746765,27.400588989257812,,
,,,2.658154249191284,-3.706103563308716,78.3976058959961,-1.7273269891738892,0.3121226131916046,-0.07536748796701431,27.400588989257812,,
,,,2.8160643577575684,-3.746777296066284,78.3976058959961,-1.7225333452224731,0.3651195466518402,-0.05992114916443825,27.400588989257812,,
,,,3.017040967941284,-3.770703077316284,78.3976058959961,-1.7126796245574951,0.4205133020877838,-0.0506000816822052,27.400588989257812,,
,,,3.2108397483825684,-3.663037061691284,78.3976058959961,-1.7142775058746338,0.47670602798461914,-0.04793692007660866,27.400588989257812,,
,,,3.2850098609924316,-3.495556592941284,78.3976058959961,-1.6967006921768188,0.5313008427619934,-0.049534816294908524,27.400588989257812,,
,,,3.5458006858825684,-3.407031297683716,78.3976058959961,-1.6913743019104004,0.6000104546546936,-0.05113271623849869,27.400588989257812,,
,,,3.6797852516174316,-3.454882860183716,78.3976058959961,-1.7054890394210815,0.6572684645652771,-0.049534816294908524,27.400588989257812,,
,,,3.792236328125,-3.562548875808716,78.3976058959961,-1.7110817432403564,0.7142601013183594,-0.049534816294908524,27.400588989257812,,
,,,3.957324266433716,-3.753955125808716,78.3976058959961,-1.7172069549560547,0.7816380858421326,-0.04420849308371544,27.400588989257812,,
,,,4.055419921875,-3.923828125,78.3976058959961,-1.7265280485153198,0.8751150965690613,-0.04314322769641876,27.400588989257812,,
,,,4.167870998382568,-3.969287157058716,78.3976058959961,-1.7363817691802979,0.9629994630813599,-0.04500744119286537,27.400588989257812,98348.9140625,24.350000381469727
,,,4.184618949890137,-3.8568358421325684,78.3976058959961,-1.7249301671981812,1.0602048635482788,-0.05193166434764862,27.400588989257812,,
,,,4.134375095367432,-4.141552925109863,78.3976058959961,-1.7150764465332031,1.158209204673767,-0.06364957988262177,27.400588989257812,,
,,,4.002783298492432,-4.09130859375,78.3976058959961,-1.6876459121704102,1.2439631223678589,-0.07643275707960129,27.400588989257812,,
,,,3.7276368141174316,-4.143945217132568,78.3976058959961,-1.6743301153182983,1.3142706155776978,-0.09374330937862396,27.400588989257812,,
,,,3.502734422683716,-4.313818454742432,78.3976058959961,-1.6745964288711548,1.3717948198318481,-0.11105386167764664,27.400588989257812,,
,,,3.268261671066284,-4.519579887390137,78.3976058959961,-1.6727322340011597,1.405350685119629,-0.12729915976524353,27.494705200195312,,
,,,3.012255907058716,-4.634423732757568,78.3976058959961,-1.6756616830825806,1.4202643632888794,-0.14434339106082916,27.30647087097168,,
,,,2.6485838890075684,-4.895215034484863,78.3976058959961,-1.6753953695297241,1.414671778678894,-0.16112130880355835,27.400588989257812,,
,,,2.330371141433716,-5.189501762390137,78.3976058959961,-1.7140111923217773,1.4215960502624512,-0.16937711834907532,27.494705200195312,,
,,,2.189208984375,-5.301953315734863,78.3976058959961,-1.7374470233917236,1.3691316843032837,-0.17736659944057465,27.400588989257812,,
,,,2.036083936691284,-5.615380764007568,78.3976058959961,-1.7467681169509888,1.3635390996932983,-0.18322555720806122,27.400588989257812,,
,,,1.926025390625,-5.445508003234863,78.3976058959961,-1.7520943880081177,1.3166674375534058,-0.1952097862958908,27.400588989257812,,
,,,1.993017554283142,-5.299560546875,78.3976058959961,-1.755556583404541,1.30068838596344,-0.2071940153837204,27.400588989257812,,
,,,1.727441430091858,-5.187109470367432,78.3976058959961,-1.7994986772537231,1.2793831825256348,-0.21971088647842407,27.494705200195312,,
,,,1.74658203125,-5.203857421875,78.3976058959961,-1.8170756101608276,1.198156714439392,-0.22397194802761078,27.400588989257812,,
,,,1.954736351966858,-5.242138862609863,78.3976058959961,-1.803227186203003,1.1795145273208618,-0.23515722155570984,27.494705200195312,,
,,,1.835107445716858,-5.206250190734863,78.3976058959961,-1.7869818210601807,1.1560786962509155,-0.2548646330833435,27.30647087097168,,
,,,1.8207519054412842,-5.060302734375,78.3976058959961,-1.7675408124923706,1.0956249237060547,-0.27137622237205505,27.400588989257812,,
,,,1.870996117591858,-4.883252143859863,78.3976058959961,-1.7257291078567505,1.056742787361145,-0.2921488881111145,27.400588989257812,,
,,,2.0384764671325684,-4.71337890625,78.3976058959961,-1.705222725868225,1.0519490242004395,-0.3107910454273224,27.400588989257812,,
,,,2.095898389816284,-4.622460842132568,78.3976058959961,-1.6916406154632568,1.0479543209075928,-0.33529213070869446,27.400588989257812,,
,,,2.2562012672424316,-4.419091701507568,78.3976058959961,-1.6546226739883423,1.0708575248718262,-0.3475426733493805,27.400588989257812,,
,,,2.3638672828674316,-4.493261814117432,78.3976058959961,-1.6269258260726929,1.1273165941238403,-0.36884796619415283,27.494705200195312,,
,,,2.3136229515075684,-4.646386623382568,78.3976058959961,-1.6002942323684692,1.184041976928711,-0.37790271639823914,27.400588989257812,,
,,,2.296875,-4.703808784484863,78.3976058959961,-1.56141197681427,1.256213665008545,-0.372310072183609,27.494705200195312,,
,,,2.1126465797424316,-4.811474800109863,78.3976058959961,-1.5329161882400513,1.330782175064087,-0.3531353175640106,27.494705200195312,,
,,,2.234668016433716,-4.806689262390137,78.3976058959961,-1.5158720016479492,1.404818058013916,-0.3302321135997772,27.400588989257812,,
,,,2.3016600608825684,-4.756445407867432,78.3976058959961,-1.4921698570251465,1.4817835092544556,-0.3059973418712616,27.494705200195312,,
,,,2.284912109375,-4.720556735992432,78.3976058959961,-1.4554181098937988,1.5651404857635498,-0.2836267650127411,27.400588989257812,,
,,,2.3040528297424316,-4.718163967132568,78.3976058959961,-1.4162696599960327,1.6354479789733887,-0.2567288279533386,27.494705200195312,,
,,,2.299267530441284,-4.691845893859863,78.3976058959961,-1.3592779636383057,1.7185386419296265,-0.22184140980243683,27.400588989257812,,
,,,2.2179198265075684,-4.622460842132568,78.3976058959961,-1.2966936826705933,1.7808566093444824,-0.18508978188037872,27.494705200195312,,
,,,2.067187547683716,-4.749267578125,78.3976058959961,-1.2503546476364136,1.8690072298049927,-0.13715285062789917,27.494705200195312,,
,,,1.897314429283142,-5.074658393859863,78.3976058959961,-1.2101409435272217,1.947037935256958,-0.0921454131603241,27.494705200195312,,
,,,1.7083008289337158,-5.268456935882568,78.3976058959961,-1.1555460691452026,2.019742250442505,-0.05699167028069496,27.494705200195312,,
,,,1.423583984375,-5.256494045257568,78.3976058959961,-1.1033481359481812,2.068744421005249,-0.036751639097929,27.400588989257812,,
,,,1.1484375,-5.136865139007568,78.3976058959961,-1.0373016595840454,2.0772664546966553,-0.02849583514034748,27.494705200195312,,
,,,0.935498058795929,-4.993310451507568,78.3976058959961,-0.9787121415138245,2.053297996520996,-0.036751639097929,27.400588989257812,,
,,,0.839794933795929,-5.122509956359863,78.3976058959961,-0.9454225897789001,1.9973716735839844,-0.05246429517865181,27.400588989257812,,
,,,0.983349621295929,-5.359375,78.3976058959961,-0.9350362420082092,1.9222705364227295,-0.0716390609741211,27.400588989257812,98349.1875,24.3700008392334
,,,1.119726538658142,-5.476611137390137,78.3976058959961,-0.9411615133285522,1.8232008218765259,-0.10066752880811691,27.400588989257812,,
,,,1.244140625,-5.665625095367432,78.3976058959961,-0.9645973443984985,1.7062880992889404,-0.1198422983288765,27.400588989257812,,
,,,1.394873023033142,-5.7421875,78.3976058959961,-0.9917616248130798,1.6226646900177002,-0.1427454948425293,27.400588989257812,,
,,,1.5791015625,-5.792431831359863,78.3976058959961,-1.0215890407562256,1.5227961540222168,-0.17070870101451874,27.400588989257812,,
,,,1.93798828125,-6.00537109375,78.3976058959961,-1.0436933040618896,1.4434338808059692,-0.18775293231010437,27.494705200195312,,
,,,2.0145506858825684,-5.665625095367432,78.3976058959961,-1.0783144235610962,1.4058833122253418,-0.22397194802761078,27.494705200195312,,
,,,2.141357421875,-5.471826076507568,78.3976058959961,-1.103880763053894,1.4010896682739258,-0.2524677813053131,27.494705200195312,,
,,,2.430859327316284,-5.486181735992432,78.3976058959961,-1.0815101861953735,1.432248592376709,-0.2788330912590027,27.494705200195312,,
,,,2.428466796875,-5.498144626617432,78.3976058959961,-1.046356439590454,1.4588803052902222,-0.29720890522003174,27.400588989257812,,
,,,2.502636671066284,-5.464648246765137,78.3976058959961,-0.9946910738945007,1.502023458480835,-0.30573102831840515,27.400588989257812,,
,,,2.562451124191284,-5.371337890625,78.3976058959961,-0.9363678693771362,1.5499603748321533,-0.3113236725330353,27.400588989257812,,
,,,2.569628953933716,-5.122509956359863,78.3976058959961,-0.8796424865722656,1.6034899950027466,-0.3102583885192871,27.400588989257812,,
,,,2.586376905441284,-4.981347560882568,78.3976058959961,-0.8263792395591736,1.6666069030761719,-0.31238892674446106,27.400588989257812,,
,,,2.643798828125,-4.873681545257568,78.3976058959961,-0.7829697132110596,1.7025595903396606,-0.31771525740623474,27.494705200195312,,
,,,2.6749024391174316,-4.888037204742432,78.3976058959961,-0.7486149072647095,1.711348056793213,-0.328900545835495,27.494705200195312,,
,,,2.583984375,-4.842577934265137,78.3976058959961,-0.7203853726387024,1.6940374374389648,-0.34434688091278076,27.494705200195312,,
,,,2.5911622047424316,-4.830615043640137,78.3976058959961,-0.701210618019104,1.723065972328186,-0.357928991317749,27.400588989257812,,
,,,2.438037157058716,-4.871289253234863,78.3976058959961,-0.695085346698761,1.7667418718338013,-0.37257638573646545,27.400588989257812,,
,,,2.438037157058716,-4.923925876617432,78.3976058959961,-0.7001453638076782,1.8266630172729492,-0.378435343503952,27.494705200195312,,
,,,1.9475586414337158,-5.359375,78.3976058959961,-0.7025421857833862,1.8860515356063843,-0.3776364028453827,27.400588989257812,,
,,,1.4379394054412842,-5.536425590515137,78.3976058959961,-0.6764432191848755,1.9422441720962524,-0.3699132204055786,27.400588989257812,,
,,,0.732128918170929,-5.644091606140137,78.3976058959961,-0.6255767941474915,1.9811264276504517,-0.36352163553237915,27.494705200195312,,
,,,0.18662109971046448,-5.605810642242432,78.3976058959961,-0.5566009283065796,1.9880505800247192,-0.35979321599006653,27.400588989257812,,
,,,-0.571826159954071,-5.447900295257568,78.3976058959961,-0.489222913980484,1.9571579694747925,-0.35393425822257996,27.400588989257812,,
,,,-0.863720715045929,-5.514892578125,78.3976058959961,-0.433829128742218,1.8940409421920776,-0.3414174020290375,27.494705200195312,,
,,,-1.244140625,-5.866601467132568,78.3976058959961,-0.39654484391212463,1.8117492198944092,-0.3187805116176605,27.494705200195312,,
,,,-1.31591796875,-6.125,78.3976058959961,-0.3621900677680969,1.711348056793213,-0.2884204685688019,27.494705200195312,,
,,,-1.184326171875,-6.433642387390137,78.3976058959961,-0.34541213512420654,1.6628785133361816,-0.24794040620326996,27.494705200195312,,
,,,-1.1340820789337158,-6.495849609375,78.3976058959961,-0.34487950801849365,1.6247953176498413,-0.20080243051052094,27.400588989257812,,
,,,-1.129296898841858,-6.366650581359863,78.3976058959961,-0.34967321157455444,1.621333122253418,-0.15925709903240204,27.494705200195312,,
,,,-1.0264160633087158,-6.273339748382568,78.3976058959961,-0.3427489697933197,1.658084750175476,-0.12729915976524353,27.400588989257812,,
,,,-0.8445800542831421,-6.103466987609863,78.3976058959961,-0.3416837155818939,1.6378448009490967,-0.09028119593858719,27.494705200195312,,
,,,-0.7129882574081421,-6.079541206359863,78.3976058959961,-0.3408847749233246,1.6868469715118408,-0.05486114323139191,27.494705200195312,,
,,,-0.57421875,-6.058007717132568,78.3976058959961,-0.3299658000469208,1.6897764205932617,-0.01651160605251789,27.400588989257812,,
,,,-0.3899902403354645,-6.007763862609863,78.3976058959961,-0.3094594478607178,1.6852490901947021,0.019174767658114433,27.400588989257812,,
,,,-0.1435546875,-6.00537109375,78.3976058959961,-0.2663162350654602,1.6860480308532715,0.041545331478118896,27.400588989257812,,
,,,0.04067382961511612,-5.900097846984863,78.3976058959961,-0.21651509404182434,1.6876459121704102,0.05619272217154503,27.400588989257812,,
,,,0.4833007752895355,-5.746972560882568,78.3976058959961,-0.1584581583738327,1.700429081916809,0.06737800687551498,27.494705200195312,,
,,,0.861328125,-5.727831840515137,78.3976058959961,-0.11158649623394012,1.7036248445510864,0.06950853765010834,27.494705200195312,,
,,,1.335058569908142,-5.603417873382568,78.3976058959961,-0.07536748796701431,1.757953405380249,0.06551378965377808,27.494705200195312,98349.0625,24.3700008392334
,,,1.524072289466858,-5.490966796875,78.3976058959961,-0.05006745085120201,1.8216029405593872,0.05779062211513519,27.494705200195312,,
,,,1.8686034679412842,-5.318701267242432,78.3976058959961,-0.03861585259437561,1.8836545944213867,0.05273061245679855,27.494705200195312,,
,,,2.019335985183716,-5.187109470367432,78.3976058959961,-0.03595269098877907,1.949967384338379,0.045273758471012115,27.400588989257812,,
,,,2.1844239234924316,-5.050732612609863,78.3976058959961,-0.03275689482688904,2.0248022079467773,0.0391484834253788,27.494705200195312,,
,,,2.1485352516174316,-4.813867092132568,78.3976058959961,-0.0298274178057909,2.107360363006592,0.02396846003830433,27.400588989257812,,
,,,2.162890672683716,-4.572216987609863,78.3976058959961,-0.015446340665221214,2.197108745574951,0.008522119373083115,27.400588989257812,,
,,,2.055224657058716,-4.586572170257568,78.3976058959961,0.008522119373083115,2.2961785793304443,-0.0026631623040884733,27.588823318481445,,
,,,2.009765625,-4.52197265625,78.3976058959961,0.04873586818575859,2.4011070728302,-0.002929478418081999,27.494705200195312,,
,,,1.847070336341858,-4.608105659484863,78.3976058959961,0.09720542281866074,2.517220973968506,0.006391589529812336,27.400588989257812,,
,,,1.6293456554412842,-4.622460842132568,78.3976058959961,0.17124132812023163,2.611496925354004,0.031957946717739105,27.494705200195312,,
,,,1.375732421875,-4.768408298492432,78.3976058959961,0.2391519695520401,2.7126970291137695,0.062317997217178345,27.494705200195312,,
,,,1.024023413658142,-5.062695503234863,78.3976058959961,0.2980078458786011,2.829343557357788,0.09614015370607376,27.494705200195312,,
,,,0.729736328125,-5.175146579742432,78.3976058959961,0.3414174020290375,2.9470553398132324,0.12144019454717636,27.400588989257812,,
,,,0.32539063692092896,-5.012451171875,78.3976058959961,0.4018711745738983,3.05411434173584,0.14540866017341614,27.494705200195312,,
,,,0.01674804650247097,-4.801904201507568,78.3976058959961,0.4868260622024536,3.1172313690185547,0.15313182771205902,27.494705200195312,,
,,,-0.559863269329071,-4.766015529632568,78.3976058959961,0.5803030729293823,3.1308135986328125,0.16005605459213257,27.494705200195312,,
,,,-0.8421875238418579,-4.837792873382568,78.3976058959961,0.6751116514205933,3.0927302837371826,0.15552867949008942,27.400588989257812,,
,,,-1.225000023841858,-4.895215034484863,78.3976058959961,0.7558054327964783,2.9899322986602783,0.14674024283885956,27.400588989257812,,
,,,-1.3494141101837158,-5.00048828125,78.3976058959961,0.8042749762535095,2.848252058029175,0.13715285062789917,27.494705200195312,,
,,,-1.215429663658142,-5.297167778015137,78.3976058959961,0.8500813841819763,2.676478147506714,0.11691281944513321,27.494705200195312,,
,,,-1.083837866783142,-5.299560546875,78.3976058959961,0.8807077407836914,2.5057692527770996,0.09161277860403061,27.494705200195312,,
,,,-0.9881347417831421,-5.368945121765137,78.3976058959961,0.8956214785575867,2.3710134029388428,0.05566009134054184,27.494705200195312,,
,,,-0.98095703125,-5.419189453125,78.3976058959961,0.9020130634307861,2.2647531032562256,0.01651160605251789,27.494705200195312,,
,,,-0.779980480670929,-5.404833793640137,78.3976058959961,0.8918930292129517,2.170210838317871,-0.02902846783399582,27.494705200195312,,
,,,-0.679492175579071,-5.517285346984863,78.3976058959961,0.861532986164093,2.1161487102508545,-0.07616644352674484,27.494705200195312,,
,,,-0.705810546875,-5.629736423492432,78.3976058959961,0.8008129000663757,2.073005437850952,-0.11345071345567703,27.400588989257812,,
,,,-0.775195300579071,-5.701513767242432,78.3976058959961,0.7267769575119019,2.044243335723877,-0.12969599664211273,27.400588989257812,,
,,,-0.643603503704071,-5.797216892242432,78.3976058959961,0.6612631678581238,2.0295958518981934,-0.12570126354694366,27.400588989257812,,
,,,-0.64599609375,-5.828320503234863,78.3976058959961,0.6117283701896667,2.0402486324310303,-0.1083907037973404,27.494705200195312,,
,,,-0.595751941204071,-5.921630859375,78.3976058959961,0.5752430558204651,2.083658218383789,-0.07217169553041458,27.588823318481445,,
,,,-0.535937488079071,-5.890527248382568,78.3976058959961,0.5387577414512634,2.1523678302764893,-0.026897938922047615,27.494705200195312,,
,,,-0.370849609375,-5.845068454742432,78.3976058959961,0.5049355626106262,2.2533016204833984,0.02716425433754921,27.494705200195312,,
,,,-0.2799316346645355,-5.778076171875,78.3976058959961,0.4844292104244232,2.3763396739959717,0.08868329972028732,27.494705200195312,,
,,,-0.20576171576976776,-5.620165824890137,78.3976058959961,0.47990182042121887,2.518019914627075,0.15952341258525848,27.494705200195312,,
,,,-0.06220703199505806,-5.500536918640137,78.3976058959961,0.48948922753334045,2.6857991218566895,0.2295645773410797,27.494705200195312,,
,,,0.17465820908546448,-5.256494045257568,78.3976058959961,0.5225124359130859,2.8714215755462646,0.30200260877609253,27.494705200195312,,
,,,0.2392578125,-5.122509956359863,78.3976058959961,0.5765746235847473,3.0676965713500977,0.3712448179721832,27.494705200195312,,
,,,0.34931641817092896,-5.055517673492432,78.3976058959961,0.6530073881149292,3.259976863861084,0.43755754828453064,27.494705200195312,,
,,,0.3995605409145355,-4.988525390625,78.3976058959961,0.7467507123947144,3.4565181732177734,0.4982776641845703,27.400588989257812,,
,,,0.5191894769668579,-4.667920112609863,78.3976058959961,0.8354340195655823,3.6509292125701904,0.5536714196205139,27.494705200195312,98348.96875,24.389999389648438
,,,0.681884765625,-4.524365425109863,78.3976058959961,0.9057414531707764,3.853595733642578,0.6048041582107544,27.494705200195312,,
,,,0.732128918170929,-4.359277248382568,78.3976058959961,0.9446236491203308,4.059191703796387,0.6471484303474426,27.494705200195312,,
,,,0.768017590045929,-4.371240139007568,78.3976058959961,0.9656625986099243,4.251471996307373,0.6753779649734497,27.494705200195312,,
,,,0.583789050579071,-4.502831935882568,78.3976058959961,1.0189259052276611,4.3984785079956055,0.685231626033783,27.400588989257812,,
,,,0.19140625,-4.380810737609863,78.3976058959961,1.1012176275253296,4.493553638458252,0.6831011176109314,27.494705200195312,,
,,,-0.18901367485523224,-4.105664253234863,78.3976058959961,1.1619377136230469,4.491689205169678,0.6636600494384766,27.494705200195312,,
,,,-0.538330078125,-4.033886909484863,78.3976058959961,1.2175977230072021,4.405669212341309,0.6311694383621216,27.494705200195312,,
,,,-0.768017590045929,-3.909472703933716,78.3976058959961,1.258610486984253,4.2493414878845215,0.5845640897750854,27.494705200195312,,
,,,-1.0144531726837158,-4.021924018859863,78.3976058959961,1.275654673576355,4.025103569030762,0.5211808681488037,27.494705200195312,,
,,,-1.280029296875,-4.335351467132568,78.3976058959961,1.2948294878005981,3.728959798812866,0.4335628151893616,27.494705200195312,,
,,,-1.2656738758087158,-4.411913871765137,78.3976058959961,1.3094768524169922,3.398993968963623,0.32677000761032104,27.400588989257812,,
,,,-1.3733398914337158,-4.605712890625,78.3976058959961,1.3017536401748657,3.051717519760132,0.19494347274303436,27.400588989257812,,
,,,-1.543212890625,-4.742089748382568,78.3976058959961,1.2881715297698975,2.7103002071380615,0.05166534706950188,27.400588989257812,,
,,,-1.9140625,-4.883252143859863,78.3976058959961,1.2405009269714355,2.3869922161102295,-0.09507489204406738,27.400588989257812,,
,,,-2.0265135765075684,-4.974169731140137,78.3976058959961,1.1611387729644775,2.093245506286621,-0.2487393468618393,27.588823318481445,,
,,,-2.2777342796325684,-5.074658393859863,78.3976058959961,1.0402311086654663,1.8144124746322632,-0.3861585259437561,27.494705200195312,,
,,,-2.4476075172424316,-5.199072360992432,78.3976058959961,0.8886972069740295,1.5478298664093018,-0.5049355626106262,27.494705200195312,,
,,,-2.356689453125,-5.557959079742432,78.3976058959961,0.7251790761947632,1.3140043020248413,-0.5954830646514893,27.494705200195312,,
,,,-2.574414014816284,-5.505322456359863,78.3976058959961,0.5834988355636597,1.153948187828064,-0.6719158291816711,27.400588989257812,,
,,,-2.796923875808716,-5.888134956359863,78.3976058959961,0.442084938287735,1.0104037523269653,-0.7198527455329895,27.400588989257812,,
,,,-3.0433592796325684,-6.254199028015137,78.3976058959961,0.3059973418712616,0.9416941404342651,-0.7241138219833374,27.494705200195312,,
,,,-3.5123047828674316,-6.125,78.3976058959961,0.13875074684619904,0.91106778383255,-0.6990801095962524,27.494705200195312,,
,,,-3.926220655441284,-6.206347465515137,78.3976058959961,-0.030093733221292496,0.937433123588562,-0.6487463116645813,27.494705200195312,,
,,,-4.215722560882568,-6.376220703125,78.3976058959961,-0.1771002858877182,0.989364743232727,-0.5733788013458252,27.400588989257812,,
,,,-4.2587890625,-6.725537300109863,78.3976058959961,-0.30146995186805725,1.0626016855239868,-0.46472179889678955,27.494705200195312,,
,,,-4.062597751617432,-6.632226467132568,78.3976058959961,-0.35100477933883667,1.1696608066558838,-0.3589942753314972,27.494705200195312,,
,,,-3.5601563453674316,-6.400146484375,78.3976058959961,-0.3488742411136627,1.3321137428283691,-0.22796668112277985,27.494705200195312,,
,,,-3.490771532058716,-6.426465034484863,78.3976058959961,-0.3302321135997772,1.533981442451477,-0.09081383049488068,27.494705200195312,,
,,,-3.375927686691284,-6.266161918640137,78.3976058959961,-0.2663162350654602,1.7520943880081177,0.05326324328780174,27.494705200195312,,
,,,-3.1055665016174316,-5.979052543640137,78.3976058959961,-0.15286551415920258,1.9718053340911865,0.20586244761943817,27.494705200195312,,
,,,-2.8064942359924316,-5.756543159484863,78.3976058959961,-0.03089268133044243,2.2586278915405273,0.35819533467292786,27.494705200195312,,
,,,-2.165283203125,-5.47900390625,78.3976058959961,0.09534120559692383,2.5499777793884277,0.5139902830123901,27.400588989257812,,
,,,-1.878173828125,-5.423974514007568,78.3976058959961,0.24447830021381378,2.8706226348876953,0.6633937358856201,27.494705200195312,,
,,,-1.6891601085662842,-5.127295017242432,78.3976058959961,0.4181164801120758,3.174222946166992,0.7898939251899719,27.494705200195312,,
,,,-1.5456054210662842,-4.947851657867432,78.3976058959961,0.6029399037361145,3.426424503326416,0.8940235376358032,27.400588989257812,,
,,,-1.33984375,-4.596142768859863,78.3976058959961,0.7992149591445923,3.6330859661102295,0.9829731583595276,27.494705200195312,,
,,,-1.0742676258087158,-4.2587890625,78.3976058959961,0.9488847255706787,3.80938720703125,1.0396984815597534,27.494705200195312,,
,,,-0.8541504144668579,-4.045849800109863,78.3976058959961,1.0386332273483276,3.9260337352752686,1.0753848552703857,27.494705200195312,,
,,,-0.595751941204071,-4.160693168640137,78.3976058959961,1.0684607028961182,3.9995369911193848,1.0972228050231934,27.494705200195312,,
,,,-0.42109376192092896,-4.251611232757568,78.3976058959961,1.0918965339660645,4.0267014503479,1.0958912372589111,27.494705200195312,98349.203125,24.399999618530273
,,,-0.538330078125,-4.23486328125,78.3976058959961,1.102016568183899,3.9987380504608154,1.0631343126296997,27.400588989257812,,
,,,-0.918749988079071,-4.112841606140137,78.3976058959961,1.1211912631988525,3.9135169982910156,0.9986858367919922,27.588823318481445,,
,,,-1.0192382335662842,-3.923828125,78.3976058959961,1.1454260349273682,3.783820867538452,0.9046761989593506,27.494705200195312,,
,,,-1.244140625,-3.85205078125,78.3976058959961,1.1787155866622925,3.620302677154541,0.7851002216339111,27.588823318481445,,
,,,-1.5168945789337158,-3.830517530441284,78.3976058959961,1.2080104351043701,3.3824822902679443,0.6492789387702942,27.494705200195312,,
,,,-1.9882323741912842,-4.050634860992432,78.3976058959961,1.2471588850021362,3.079680919647217,0.506000816822052,27.400588989257812,,
,,,-2.1700682640075684,-4.122412204742432,78.3976058959961,1.2713936567306519,2.7497150897979736,0.378435343503952,27.494705200195312,,
,,,-2.414111375808716,-4.304247856140137,78.3976058959961,1.261007308959961,2.4245429039001465,0.25939199328422546,27.494705200195312,,
,,,-2.4691405296325684,-4.344922065734863,78.3976058959961,1.2186630964279175,2.1393182277679443,0.1379518061876297,27.400588989257812,,
,,,-2.56005859375,-4.222900390625,78.3976058959961,1.1547471284866333,1.9028294086456299,0.026897938922047615,27.400588989257812,,
,,,-2.691650390625,-4.280322074890137,78.3976058959961,1.052481770515442,1.7086849212646484,-0.08468855917453766,27.400588989257812,,
,,,-3.098388671875,-4.5458984375,78.3976058959961,0.9305089116096497,1.5725972652435303,-0.18482345342636108,27.400588989257812,,
,,,-2.957226514816284,-4.651171684265137,78.3976058959961,0.8048076033592224,1.4684677124023438,-0.25140252709388733,27.494705200195312,,
,,,-3.347216844558716,-4.754052639007568,78.3976058959961,0.6338326334953308,1.4351781606674194,-0.2788330912590027,27.400588989257812,,
,,,-3.801806688308716,-4.9287109375,78.3976058959961,0.44368281960487366,1.3736591339111328,-0.302268922328949,27.494705200195312,,
,,,-3.969287157058716,-4.993310451507568,78.3976058959961,0.30466577410697937,1.2777851819992065,-0.30333417654037476,27.588823318481445,,
,,,-4.072167873382568,-5.045947074890137,78.3976058959961,0.20293296873569489,1.2298482656478882,-0.29481205344200134,27.400588989257812,,
,,,-4.275537014007568,-5.093798637390137,78.3976058959961,0.11345071345567703,1.1832430362701416,-0.26764780282974243,27.494705200195312,,
,,,-4.270751953125,-4.998095512390137,78.3976058959961,0.02663162164390087,1.1843082904815674,-0.2343582808971405,27.494705200195312,,
,,,-4.263574123382568,-4.943066596984863,78.3976058959961,-0.04793692007660866,1.2293156385421753,-0.21118876338005066,27.494705200195312,,
,,,-4.268359184265137,-4.95263671875,78.3976058959961,-0.126500204205513,1.305748462677002,-0.18775293231010437,27.400588989257812,,
,,,-4.299462795257568,-5.1201171875,78.3976058959961,-0.1789644956588745,1.3936327695846558,-0.16058868169784546,27.400588989257812,,
,,,-4.538720607757568,-5.141650199890137,78.3976058959961,-0.21012349426746368,1.4852455854415894,-0.12383704632520676,27.400588989257812,,
,,,-4.8330078125,-5.275634765625,78.3976058959961,-0.2162487804889679,1.5837825536727905,-0.07989487051963806,27.494705200195312,,
,,,-5.093798637390137,-5.385693550109863,78.3976058959961,-0.2024003267288208,1.6831185817718506,-0.026098988950252533,27.400588989257812,,
,,,-5.294775485992432,-5.373730659484863,78.3976058959961,-0.1704423874616623,1.7947050333023071,0.035153742879629135,27.494705200195312,,
,,,-5.794824123382568,-5.569921970367432,78.3976058959961,-0.14088128507137299,1.93718421459198,0.11451597511768341,27.494705200195312,,
,,,-6.132177829742432,-5.388085842132568,78.3976058959961,-0.1083907037973404,2.1108224391937256,0.20772665739059448,27.494705200195312,,
,,,-6.280517578125,-5.395263671875,78.3976058959961,-0.03941480070352554,2.2932488918304443,0.3102583885192871,27.400588989257812,,
,,,-6.491064548492432,-5.610595703125,78.3976058959961,0.06072009727358818,2.4943177700042725,0.4306333363056183,27.494705200195312,,
,,,-6.586767673492432,-5.500536918640137,78.3976058959961,0.17124132812023163,2.677277088165283,0.5651230216026306,27.494705200195312,,
,,,-6.519775390625,-5.445508003234863,78.3976058959961,0.3107910454273224,2.878079414367676,0.692688524723053,27.494705200195312,,
,,,-6.634619235992432,-5.366552829742432,78.3976058959961,0.4524712562561035,3.075685977935791,0.8090686798095703,27.588823318481445,,
,,,-6.668115139007568,-5.172753810882568,78.3976058959961,0.597879946231842,3.246927499771118,0.9193236231803894,27.494705200195312,,
,,,-6.811669826507568,-5.208642482757568,78.3976058959961,0.723847508430481,3.3867433071136475,1.0215890407562256,27.494705200195312,,
,,,-7.074853420257568,-4.981347560882568,78.3976058959961,0.8277108073234558,3.5151078701019287,1.1201260089874268,27.588823318481445,,
,,,-7.3212890625,-4.926318168640137,78.3976058959961,0.9052088260650635,3.5870132446289062,1.1965588331222534,27.494705200195312,,
,,,-7.577294826507568,-4.895215034484863,78.3976058959961,1.007207989692688,3.570235252380371,1.2623388767242432,27.588823318481445,,
,,,-7.572509765625,-4.852148532867432,78.3976058959961,1.1140007972717285,3.5100479125976562,1.3126726150512695,27.588823318481445,,
,,,-7.543798923492432,-4.682275295257568,78.3976058959961,1.205879807472229,3.394200325012207,1.3409022092819214,27.400588989257812,98349.171875,24.40999984741211
,,,-7.366747856140137,-4.514794826507568,78.3976058959961,1.3017536401748657,3.174222946166992,1.3568811416625977,27.494705200195312,,
,,,-7.354784965515137,-4.615283012390137,78.3976058959961,1.3891054391860962,2.9209563732147217,1.3510222434997559,27.494705200195312,,
,,,-6.964795112609863,-4.275537014007568,78.3976058959961,1.4309170246124268,2.6863317489624023,1.343032717704773,27.494705200195312,,
,,,-6.481493949890137,-4.265966892242432,78.3976058959961,1.4506244659423828,2.4831323623657227,1.3195968866348267,27.494705200195312,,
,,,-6.014941215515137,-4.1630859375,78.3976058959961,1.476457118988037,2.2341268062591553,1.25807785987854,27.494705200195312,,
,,,-5.380908012390137,-4.086523532867432,78.3976058959961,1.4831150770187378,1.9750010967254639,1.1843082904815674,27.494705200195312,,
,,,-5.1201171875,-4.117627143859863,78.3976058959961,1.452488660812378,1.7150764465332031,1.116663932800293,27.588823318481445,,
,,,-4.608105659484863,-3.8831543922424316,78.3976058959961,1.3917685747146606,1.5102792978286743,1.0383669137954712,27.494705200195312,,
,,,-3.9716796875,-3.758740186691284,78.3976058959961,1.305215835571289,1.3491579294204712,0.949683666229248,27.494705200195312,,
,,,-3.696533203125,-3.8233399391174316,78.3976058959961,1.1896345615386963,1.2053471803665161,0.8641961216926575,27.494705200195312,,
,,,-3.5481934547424316,-3.672607421875,78.3976058959961,1.044492244720459,1.1009513139724731,0.7840349674224854,27.494705200195312,,
,,,-3.4381346702575684,-3.7635254859924316,78.3976058959961,0.9094699025154114,1.0349048376083374,0.7185211777687073,27.588823318481445,,
,,,-3.555371046066284,-3.753955125808716,78.3976058959961,0.7816380858421326,0.9859026670455933,0.6609968543052673,27.588823318481445,,
,,,-3.7635254859924316,-3.789843797683716,78.3976058959961,0.6703179478645325,0.9499499797821045,0.6098641753196716,27.588823318481445,,
,,,-3.861621141433716,-3.61279296875,78.3976058959961,0.5699167251586914,0.9243836402893066,0.562992513179779,27.494705200195312,,
,,,-4.127197265625,-3.753955125808716,78.3976058959961,0.49375027418136597,0.9046761989593506,0.5273061394691467,27.494705200195312,,
,,,-4.466943264007568,-3.8592286109924316,78.3976058959961,0.40879541635513306,0.9092035889625549,0.503603994846344,27.494705200195312,,
,,,-5.031591892242432,-3.782665967941284,78.3976058959961,0.35526585578918457,0.9595373272895813,0.4921523928642273,27.588823318481445,,
,,,-5.409619331359863,-3.842480421066284,78.3976058959961,0.3235742151737213,1.038899540901184,0.4958808124065399,27.588823318481445,,
,,,-6.010156154632568,-4.017138481140137,78.3976058959961,0.31531840562820435,1.1323765516281128,0.5177187323570251,27.494705200195312,,
,,,-6.302050590515137,-4.079345703125,78.3976058959961,0.33156371116638184,1.246359944343567,0.5566009283065796,27.588823318481445,,
,,,-6.835595607757568,-4.220507621765137,78.3976058959961,0.3776364028453827,1.3744580745697021,0.6141251921653748,27.588823318481445,,
,,,-7.101171970367432,-4.220507621765137,78.3976058959961,0.42370912432670593,1.516404628753662,0.6769758462905884,27.494705200195312,,
,,,-7.732812404632568,-4.28271484375,78.3976058959961,0.47324392199516296,1.6583510637283325,0.7629959583282471,27.494705200195312,,
,,,-8.031885147094727,-4.359277248382568,78.3976058959961,0.5342303514480591,1.787248134613037,0.8681908845901489,27.494705200195312,,
,,,-8.402734756469727,-4.40234375,78.3976058959961,0.5986788868904114,1.9321242570877075,0.9824405312538147,27.494705200195312,,
,,,-8.625244140625,-4.407128810882568,78.3976058959961,0.6756442785263062,2.0642170906066895,1.1121366024017334,27.494705200195312,,
,,,-8.835790634155273,-4.359277248382568,78.3976058959961,0.7683222889900208,2.1925814151763916,1.245827317237854,27.494705200195312,,
,,,-8.783154487609863,-4.404736518859863,78.3976058959961,0.886566698551178,2.304966926574707,1.3808495998382568,27.588823318481445,,
,,,-8.73291015625,-4.189404487609863,78.3976058959961,1.0133332014083862,2.439723014831543,1.5086814165115356,27.494705200195312,,
,,,-8.783154487609863,-4.079345703125,78.3976058959961,1.1153323650360107,2.529737710952759,1.6295889616012573,27.494705200195312,,
,,,-8.58935546875,-3.866406202316284,78.3976058959961,1.230647325515747,2.593653678894043,1.7369143962860107,27.588823318481445,,
,,,-8.462549209594727,-3.7013182640075684,78.3976058959961,1.3334453105926514,2.644253730773926,1.8434408903121948,27.494705200195312,,
,,,-8.024706840515137,-3.5601563453674316,78.3976058959961,1.4239928722381592,2.656770706176758,1.9361189603805542,27.588823318481445,,
,,,-7.723242282867432,-3.4644532203674316,78.3976058959961,1.5113445520401,2.647982120513916,2.01335072517395,27.588823318481445,,
,,,-7.218408107757568,-3.289794921875,78.3976058959961,1.590973138809204,2.605638027191162,2.07167387008667,27.494705200195312,,
,,,-6.854736328125,-3.155810594558716,78.3976058959961,1.6604816913604736,2.54305362701416,2.114018201828003,27.494705200195312,,
,,,-6.325976371765137,-3.026611328125,78.3976058959961,1.710282802581787,2.4674198627471924,2.136122465133667,27.494705200195312,,
,,,-5.962304592132568,-2.859130859375,78.3976058959961,1.7166743278503418,2.380068063735962,2.1425139904022217,27.588823318481445,,
,,,-5.6943359375,-2.6868653297424316,78.3976058959961,1.7025595903396606,2.2796669006347656,2.1329267024993896,27.588823318481445,,
,,,-5.455078125,-2.56005859375,78.3976058959961,1.6913743019104004,2.1603572368621826,2.1124203205108643,27.494705200195312,98349.6484375,24.420000076293945
,,,-5.211035251617432,-2.4476075172424316,78.3976058959961,1.6809879541397095,2.053830623626709,2.0852560997009277,27.400588989257812,,
,,,-5.041162014007568,-2.347119092941284,78.3976058959961,1.6290563344955444,1.9385157823562622,2.0487706661224365,27.494705200195312,,
,,,-4.703808784484863,-2.3016600608825684,78.3976058959961,1.5896415710449219,1.8216029405593872,2.003763198852539,27.588823318481445,,
,,,-4.56982421875,-2.213134765625,78.3976058959961,1.549161434173584,1.6831185817718506,1.9406462907791138,27.494705200195312,,
,,,-4.268359184265137,-2.069580078125,78.3976058959961,1.5028223991394043,1.5805867910385132,1.8554251194000244,27.494705200195312,,
,,,-4.175048828125,-1.9523437023162842,78.3976058959961,1.4700655937194824,1.4532876014709473,1.7779271602630615,27.494705200195312,,
,,,-4.344922065734863,-1.8207519054412842,78.3976058959961,1.4263896942138672,1.327852725982666,1.6937711238861084,27.494705200195312,,
,,,-4.404736518859863,-1.7250487804412842,78.3976058959961,1.3875075578689575,1.2223914861679077,1.6026910543441772,27.588823318481445,,
,,,-4.588964939117432,-1.710693359375,78.3976058959961,1.3462284803390503,1.1334418058395386,1.5108119249343872,27.494705200195312,,
,,,-4.780371189117432,-1.7202637195587158,78.3976058959961,1.3142706155776978,1.061536431312561,1.4357107877731323,27.494705200195312,,
,,,-5.156005859375,-1.8566405773162842,78.3976058959961,1.273257851600647,1.012534260749817,1.3670011758804321,27.494705200195312,,
,,,-5.433545112609863,-1.926025390625,78.3976058959961,1.2490230798721313,0.9938921332359314,1.3142706155776978,27.588823318481445,,
,,,-6.079541206359863,-1.9834473133087158,78.3976058959961,1.215733528137207,0.9976205825805664,1.270328402519226,27.494705200195312,,
,,,-6.390576362609863,-1.978662133216858,78.3976058959961,1.1861724853515625,1.0128005743026733,1.2468925714492798,27.494705200195312,,
,,,-7.000683784484863,-1.9403808116912842,78.3976058959961,1.151551365852356,1.034105896949768,1.233044147491455,27.588823318481445,,
,,,-7.244726657867432,-1.9619140625,78.3976058959961,1.1281155347824097,1.0594059228897095,1.2319788932800293,27.494705200195312,,
,,,-7.802197456359863,-2.1365723609924316,78.3976058959961,1.1076091527938843,1.0839070081710815,1.237837791442871,27.494705200195312,,
,,,-8.055810928344727,-2.323193311691284,78.3976058959961,1.101483941078186,1.0996196269989014,1.2543494701385498,27.494705200195312,,
,,,-8.728124618530273,-2.715576171875,78.3976058959961,1.1030818223953247,1.1052123308181763,1.280182123184204,27.588823318481445,,
,,,-9.158788681030273,-2.8232421875,78.3976058959961,1.1140007972717285,1.109207034111023,1.3070800304412842,27.494705200195312,,
,,,-9.780858993530273,-2.9380860328674316,78.3976058959961,1.138768196105957,1.0998860597610474,1.3390380144119263,27.588823318481445,,
,,,-10.242627143859863,-2.981152296066284,78.3976058959961,1.1781829595565796,1.088700771331787,1.39256751537323,27.588823318481445,,
,,,-10.663721084594727,-3.005078077316284,78.3976058959961,1.2389030456542969,1.083640694618225,1.4527549743652344,27.588823318481445,,
,,,-10.768994331359863,-3.0816407203674316,78.3976058959961,1.330249547958374,1.0934944152832031,1.5374435186386108,27.588823318481445,,
,,,-11.1015625,-3.158203125,78.3976058959961,1.4325149059295654,1.1060112714767456,1.6445026397705078,27.494705200195312,,
,,,-11.202051162719727,-3.263476610183716,78.3976058959961,1.5643415451049805,1.1273165941238403,1.7744649648666382,27.494705200195312,,
,,,-11.252294540405273,-3.352001905441284,78.3976058959961,1.7121469974517822,1.1693944931030273,1.904160976409912,27.588823318481445,,
,,,-11.273828506469727,-3.514697313308716,78.3976058959961,1.8764641284942627,1.2117388248443604,2.053297996520996,27.588823318481445,,
,,,-11.106348037719727,-3.555371046066284,78.3976058959961,2.083658218383789,1.2612736225128174,2.2069625854492188,27.588823318481445,,
,,,-11.022607803344727,-3.1270995140075684,78.3976058959961,2.3041679859161377,1.2791168689727783,2.335326910018921,27.494705200195312,,
,,,-10.587158203125,-3.1534180641174316,78.3976058959961,2.5347979068756104,1.2647356986999512,2.456500768661499,27.494705200195312,,
,,,-10.094286918640137,-3.5697264671325684,78.3976058959961,2.7561066150665283,1.246359944343567,2.5848653316497803,27.494705200195312,,
,,,-9.527246475219727,-3.2945799827575684,78.3976058959961,2.9758174419403076,1.2191957235336304,2.687929630279541,27.588823318481445,,
,,,-9.036767959594727,-3.18212890625,78.3976058959961,3.187272548675537,1.2016187906265259,2.7739498615264893,27.494705200195312,,
,,,-8.658740043640137,-3.048144578933716,78.3976058959961,3.3670361042022705,1.1946945190429688,2.849583625793457,27.494705200195312,,
,,,-8.512792587280273,-2.99072265625,78.3976058959961,3.5119121074676514,1.1992219686508179,2.9119014739990234,27.494705200195312,,
,,,-8.328564643859863,-2.454785108566284,78.3976058959961,3.675163984298706,1.1683292388916016,2.9398648738861084,27.494705200195312,,
,,,-8.235254287719727,-2.6749024391174316,78.3976058959961,3.654923915863037,1.1965588331222534,3.029080629348755,27.494705200195312,,
,,,-7.962500095367432,-2.7203612327575684,78.3976058959961,3.765977621078491,1.08177649974823,3.076218605041504,27.494705200195312,,
,,,-8.089306831359863,-3.2586913108825684,78.3976058959961,3.8860862255096436,1.0924291610717773,3.1017849445343018,27.588823318481445,98349.78125,24.43000030517578
,,,-7.952929496765137,-3.3089356422424316,78.3976058959961,3.885819911956787,0.9890984296798706,3.141199827194214,27.494705200195312,,
,,,-7.957715034484863,-3.399853467941284,78.3976058959961,3.9699759483337402,0.8705877065658569,3.1617062091827393,27.588823318481445,,
,,,-8.455370903015137,-3.483593702316284,78.3976058959961,3.990216016769409,0.769653856754303,3.178217887878418,27.588823318481445,,
,,,-8.570215225219727,-3.3902831077575684,78.3976058959961,4.003265380859375,0.6072009801864624,3.1992568969726562,27.588823318481445,,
,,,-8.979345321655273,-3.03857421875,78.3976058959961,4.005662441253662,0.4705807566642761,3.2083115577697754,27.588823318481445,,
,,,-9.326269149780273,-2.677294969558716,78.3976058959961,3.965714931488037,0.31904682517051697,3.2221601009368896,27.588823318481445,,
,,,-9.59423828125,-2.2490234375,78.3976058959961,3.91245174407959,0.16005605459213257,3.228285312652588,27.588823318481445,,
,,,-9.663622856140137,-1.949951171875,78.3976058959961,3.8370840549468994,0.010918965563178062,3.228817939758301,27.494705200195312,,
,,,-9.582275390625,-1.5456054210662842,78.3976058959961,3.732421875,-0.13235916197299957,3.228817939758301,27.494705200195312,,
,,,-9.443506240844727,-1.17236328125,78.3976058959961,3.6133785247802734,-0.2564625144004822,3.2173662185668945,27.494705200195312,,
,,,-9.280810356140137,-0.7584472894668579,78.3976058959961,3.472230911254883,-0.3475426733493805,3.2096431255340576,27.588823318481445,,
,,,-9.175537109375,-0.540722668170929,78.3976058959961,3.29166841506958,-0.4106596112251282,3.2016537189483643,27.494705200195312,,
,,,-9.3310546875,-0.13876953721046448,78.3976058959961,3.0908660888671875,-0.4447481036186218,3.1933977603912354,27.494705200195312,,
,,,-9.59423828125,0.21533203125,78.3976058959961,2.8631656169891357,-0.46179232001304626,3.184875726699829,27.588823318481445,,
,,,-9.78564453125,0.6412109136581421,78.3976058959961,2.6261441707611084,-0.47510814666748047,3.1683640480041504,27.494705200195312,,
,,,-9.83349609375,0.9378906488418579,78.3976058959961,2.3912534713745117,-0.503603994846344,3.1595757007598877,27.588823318481445,,
,,,-9.677978515625,1.2656738758087158,78.3976058959961,2.177401542663574,-0.5550029873847961,3.1494555473327637,27.588823318481445,,
,,,-9.369336128234863,1.406835913658142,78.3976058959961,1.9856537580490112,-0.6093315482139587,3.1539831161499023,27.588823318481445,,
,,,-8.902783393859863,1.3541991710662842,78.3976058959961,1.8170756101608276,-0.6620621085166931,3.168630361557007,27.588823318481445,,
,,,-8.474512100219727,1.1986815929412842,78.3976058959961,1.6860480308532715,-0.726244330406189,3.1899356842041016,27.494705200195312,,
,,,-7.8955078125,1.2537109851837158,78.3976058959961,1.5925710201263428,-0.7885623574256897,3.2136378288269043,27.494705200195312,,
,,,-7.462450981140137,1.41162109375,78.3976058959961,1.5211982727050781,-0.8277108073234558,3.237339973449707,27.400588989257812,,
,,,-7.127490043640137,1.7130858898162842,78.3976058959961,1.4863108396530151,-0.8623319268226624,3.2543842792510986,27.494705200195312,,
,,,-6.814062595367432,2.0145506858825684,78.3976058959961,1.467136025428772,-0.880441427230835,3.2583789825439453,27.588823318481445,,
,,,-6.105859279632568,2.3638672828674316,78.3976058959961,1.4719297885894775,-0.8836372494697571,3.2447967529296875,27.588823318481445,,
,,,-5.629736423492432,2.713183641433716,78.3976058959961,1.5185351371765137,-0.8404939770698547,3.228285312652588,27.494705200195312,,
,,,-5.165575981140137,3.2945799827575684,78.3976058959961,1.5606130361557007,-0.8040086627006531,3.1814136505126953,27.494705200195312,,
,,,-4.677490234375,3.5936522483825684,78.3976058959961,1.623996376991272,-0.7720507383346558,3.120427131652832,27.494705200195312,,
,,,-4.009961128234863,3.730029344558716,78.3976058959961,1.7185386419296265,-0.7259780168533325,3.0599734783172607,27.494705200195312,,
,,,-3.686962842941284,3.866406202316284,78.3976058959961,1.7635459899902344,-0.6660568714141846,2.9835405349731445,27.588823318481445,,
,,,-3.4524903297424316,3.840087890625,78.3976058959961,1.8431745767593384,-0.6423547267913818,2.903379440307617,27.494705200195312,,
,,,-3.323291063308716,3.94775390625,78.3976058959961,1.8929756879806519,-0.6189188957214355,2.8141634464263916,27.588823318481445,,
,,,-3.495556592941284,3.89990234375,78.3976058959961,1.917476773262024,-0.6170547008514404,2.7233498096466064,27.588823318481445,,
,,,-3.7276368141174316,3.873584032058716,78.3976058959961,1.9433094263076782,-0.6399579048156738,2.6328022480010986,27.494705200195312,,
,,,-4.029101371765137,3.746777296066284,78.3976058959961,1.9497010707855225,-0.6788400411605835,2.5395915508270264,27.494705200195312,,
,,,-4.529150485992432,3.758740186691284,78.3976058959961,1.939581036567688,-0.7326359152793884,2.4586312770843506,27.494705200195312,,
,,,-4.938281059265137,3.3185057640075684,78.3976058959961,1.949967384338379,-0.8191887140274048,2.3989765644073486,27.588823318481445,,
,,,-5.254101753234863,3.292187452316284,78.3976058959961,1.9449074268341064,-0.9163941144943237,2.3595616817474365,27.588823318481445,,
,,,-5.792431831359863,3.6295409202575684,78.3976058959961,1.949967384338379,-1.0165290832519531,2.3302669525146484,27.494705200195312,,
,,,-6.093896389007568,3.624755859375,78.3976058959961,1.9489021301269531,-1.1036144495010376,2.2969775199890137,27.588823318481445,98349.8203125,24.440000534057617
,,,-6.637011528015137,4.127197265625,78.3976058959961,1.9398473501205444,-1.1872377395629883,2.275672197341919,27.494705200195312,,
,,,-6.983935356140137,4.280322074890137,78.3976058959961,1.9206726551055908,-1.2695294618606567,2.261291027069092,27.588823318481445,,
,,,-7.275830268859863,4.2587890625,78.3976058959961,1.907623052597046,-1.3494243621826172,2.2538342475891113,27.494705200195312,,
,,,-7.328466892242432,4.306640625,78.3976058959961,1.8785946369171143,-1.4157370328903198,2.256497383117676,27.494705200195312,,
,,,-7.388281345367432,4.167870998382568,78.3976058959961,1.849832534790039,-1.4927024841308594,2.2671499252319336,27.494705200195312,,
,,,-7.175341606140137,4.050634860992432,78.3976058959961,1.8114829063415527,-1.5456993579864502,2.281797409057617,27.494705200195312,,
,,,-6.672900199890137,3.983642578125,78.3976058959961,1.782987117767334,-1.5883100032806396,2.2927162647247314,27.494705200195312,,
,,,-6.433642387390137,3.997997999191284,78.3976058959961,1.7227996587753296,-1.6050878763198853,2.297776460647583,27.494705200195312,,
,,,-6.067578315734863,4.041064262390137,78.3976058959961,1.675927996635437,-1.5851141214370728,2.296444892883301,27.494705200195312,,
,,,-5.857031345367432,4.201367378234863,78.3976058959961,1.6447689533233643,-1.5273234844207764,2.2887215614318848,27.588823318481445,,
,,,-5.488574028015137,4.517187595367432,78.3976058959961,1.5622109174728394,-1.4479613304138184,2.2748732566833496,27.588823318481445,,
,,,-5.325879096984863,4.758837699890137,78.3976058959961,1.4831150770187378,-1.3329126834869385,2.251171112060547,27.494705200195312,,
,,,-5.069872856140137,5.141650199890137,78.3976058959961,1.4002907276153564,-1.195759892463684,2.2277352809906006,27.588823318481445,,
,,,-4.993310451507568,5.395263671875,78.3976058959961,1.3116073608398438,-1.0396984815597534,2.195777177810669,27.494705200195312,,
,,,-4.935888767242432,5.687158107757568,78.3976058959961,1.2247883081436157,-0.8748487830162048,2.1718087196350098,27.494705200195312,,
,,,-4.981347560882568,5.601025581359863,78.3976058959961,1.1536818742752075,-0.7182548642158508,2.1449108123779297,27.588823318481445,,
,,,-5.072265625,5.651269435882568,78.3976058959961,1.0777817964553833,-0.5832325220108032,2.1190781593322754,27.588823318481445,,
,,,-5.141650199890137,5.512499809265137,78.3976058959961,1.0191922187805176,-0.4878913164138794,2.0857887268066406,27.494705200195312,,
,,,-5.3115234375,5.672802925109863,78.3976058959961,0.9677931666374207,-0.4210459589958191,2.0623528957366943,27.494705200195312,,
,,,-5.514892578125,5.768506050109863,78.3976058959961,0.9283783435821533,-0.3752395510673523,2.0530316829681396,27.494705200195312,,
,,,-5.639306545257568,5.679980278015137,78.3976058959961,0.9193236231803894,-0.38402798771858215,2.039982318878174,27.494705200195312,,
,,,-5.8857421875,5.672802925109863,78.3976058959961,0.9233183264732361,-0.41305646300315857,2.031726360321045,27.494705200195312,,
,,,-6.048437595367432,5.658447265625,78.3976058959961,0.9321067929267883,-0.4524712562561035,2.0327916145324707,27.588823318481445,,
,,,-6.256591796875,5.359375,78.3976058959961,0.9635320901870728,-0.483097642660141,2.0405149459838867,27.494705200195312,,
,,,-6.34033203125,4.914355278015137,78.3976058959961,1.0026805400848389,-0.5661882758140564,2.070608615875244,27.588823318481445,,
,,,-6.500634670257568,5.268456935882568,78.3976058959961,1.021855354309082,-0.616788387298584,2.0972402095794678,27.494705200195312,,
,,,-6.352294921875,5.452685356140137,78.3976058959961,1.0868364572525024,-0.6660568714141846,2.1070940494537354,27.588823318481445,,
,,,-6.062792778015137,5.586669921875,78.3976058959961,1.1278492212295532,-0.7265106439590454,2.1238718032836914,27.588823318481445,,
,,,-5.756543159484863,5.663232326507568,78.3976058959961,1.1845746040344238,-0.7808391451835632,2.139584541320801,27.494705200195312,,
,,,-5.672802925109863,5.816357612609863,78.3976058959961,1.2370388507843018,-0.8396950364112854,2.130796194076538,27.494705200195312,,
,,,-5.541211128234863,6.170458793640137,78.3976058959961,1.2729915380477905,-0.8625982403755188,2.1156160831451416,27.588823318481445,,
,,,-5.249316215515137,6.14892578125,78.3976058959961,1.3094768524169922,-0.8847025036811829,2.095109701156616,27.588823318481445,,
,,,-5.033984184265137,6.113037109375,78.3976058959961,1.3294506072998047,-0.919057309627533,2.0628855228424072,27.588823318481445,,
,,,-4.892822265625,6.165673732757568,78.3976058959961,1.3558158874511719,-0.966195285320282,2.0256011486053467,27.588823318481445,,
,,,-4.689453125,5.959912300109863,78.3976058959961,1.3768548965454102,-1.0151973962783813,1.9915127754211426,27.494705200195312,,
,,,-4.584179878234863,6.093896389007568,78.3976058959961,1.392034888267517,-1.038899540901184,1.9505000114440918,27.494705200195312,,
,,,-4.481298923492432,6.242236137390137,78.3976058959961,1.394964337348938,-1.0476880073547363,1.9185420274734497,27.588823318481445,,
,,,-4.550683498382568,6.376220703125,78.3976058959961,1.3923012018203735,-1.0151973962783813,1.873002052307129,27.494705200195312,,
,,,-4.591357231140137,6.213525295257568,78.3976058959961,1.3883064985275269,-0.9672605395317078,1.8247987031936646,27.588823318481445,,
-2.25,-38.25,-57.45000076293945,-4.742089748382568,6.357079982757568,78.3976058959961,1.3608758449554443,-0.8940235376358032,1.790976643562317,27.400588989257812,98350.125,24.440000534057617
,,,-4.969384670257568,6.514990329742432,78.3976058959961,1.3496906757354736,-0.8279771208763123,1.770203948020935,27.494705200195312,,
,,,-5.045947074890137,6.5078125,78.3976058959961,1.3305158615112305,-0.758734941482544,1.7393112182617188,27.588823318481445,,
,,,-5.275634765625,6.608300685882568,78.3976058959961,1.3166674375534058,-0.7052053809165955,1.7158753871917725,27.494705200195312,,
-4.050000190734863,-39.0,-59.099998474121094,-5.421582221984863,6.632226467132568,78.3976058959961,1.3012210130691528,-0.6522084474563599,1.6937711238861084,27.588823318481445,,
,,,-5.624951362609863,6.665722846984863,78.3976058959961,1.286041021347046,-0.5997441411018372,1.6847164630889893,27.588823318481445,,
,,,-5.900097846984863,6.814062595367432,78.3976058959961,1.275654673576355,-0.5499430298805237,1.6780585050582886,27.588823318481445,,
,,,-5.921630859375,6.680078029632568,78.3976058959961,1.237837791442871,-0.5187839865684509,1.6900427341461182,27.494705200195312,,
-4.050000190734863,-39.75,-57.150001525878906,-6.1728515625,6.878662109375,78.3976058959961,1.2080104351043701,-0.4772386848926544,1.7038911581039429,27.588823318481445,,
,,,-6.072363376617432,6.928906440734863,78.3976058959961,1.180846095085144,-0.44714492559432983,1.7172069549560547,27.682941436767578,,
,,,-6.062792778015137,7.10595703125,78.3976058959961,1.1568776369094849,-0.4234427809715271,1.7323870658874512,27.494705200195312,,
,,,-5.809179782867432,7.275830268859863,78.3976058959961,1.1329091787338257,-0.41465437412261963,1.7488986253738403,27.588823318481445,,
-5.099999904632568,-41.70000076293945,-57.599998474121094,-5.593847751617432,7.263867378234863,78.3976058959961,1.106810212135315,-0.4191817343235016,1.7483659982681274,27.588823318481445,,
,,,-5.278027534484863,7.283007621765137,78.3976058959961,1.0863038301467896,-0.42983439564704895,1.7598176002502441,27.494705200195312,,
,,,-5.105761528015137,7.455273628234863,78.3976058959961,1.0735206604003906,-0.44900915026664734,1.7520943880081177,27.494705200195312,,
,,,-4.773193359375,7.570116996765137,78.3976058959961,1.063933253288269,-0.4772386848926544,1.7286585569381714,27.588823318481445,,
-6.599999904632568,-42.900001525878906,-57.150001525878906,-4.526757717132568,7.615576267242432,78.3976058959961,1.0495522022247314,-0.5038703083992004,1.7100164890289307,27.494705200195312,,
,,,-4.237256050109863,7.876367092132568,78.3976058959961,1.041562795639038,-0.5166534781455994,1.6825859546661377,27.588823318481445,,
,,,-4.057812690734863,8.01513671875,78.3976058959961,1.0306438207626343,-0.5214471817016602,1.6442363262176514,27.494705200195312,,
,,,-3.854443311691284,8.11083984375,78.3976058959961,1.0207901000976562,-0.5238440036773682,1.6040226221084595,27.588823318481445,,
-6.599999904632568,-42.150001525878906,-55.5,-3.6893553733825684,8.266357421875,78.3976058959961,1.0183932781219482,-0.5139902830123901,1.5624772310256958,27.494705200195312,,
,,,-3.538623094558716,8.244824409484863,78.3976058959961,1.019991159439087,-0.5049355626106262,1.5209319591522217,27.682941436767578,,
,,,-3.442919969558716,8.273534774780273,78.3976058959961,1.0122679471969604,-0.491619735956192,1.4841803312301636,27.588823318481445,,
,,,-3.42138671875,8.225683212280273,78.3976058959961,1.002147912979126,-0.45513442158699036,1.4490265846252441,27.588823318481445,,
-6.900000095367432,-43.5,-56.25,-3.471630811691284,8.189794540405273,78.3976058959961,0.9856363534927368,-0.4037353992462158,1.4178675413131714,27.494705200195312,,
,,,-3.574511766433716,8.06298828125,78.3976058959961,0.9640647172927856,-0.33342790603637695,1.3859096765518188,27.588823318481445,,
,,,-3.722851514816284,7.981640815734863,78.3976058959961,0.9416941404342651,-0.25140252709388733,1.369930624961853,27.588823318481445,,
,,,-3.9549317359924316,7.943359375,78.3976058959961,0.9209215044975281,-0.15073497593402863,1.3563485145568848,27.588823318481445,,
-7.5,-43.5,-56.099998474121094,-4.146337985992432,7.984033107757568,78.3976058959961,0.9123993515968323,-0.04846955090761185,1.3574137687683105,27.494705200195312,,
,,,-4.483691215515137,7.885937690734863,78.3976058959961,0.9193236231803894,0.04181164875626564,1.3664685487747192,27.588823318481445,,
,,,-4.588964939117432,7.87158203125,78.3976058959961,0.9286446571350098,0.13289178907871246,1.3771212100982666,27.588823318481445,,
,,,-4.636816501617432,8.036669731140137,78.3976058959961,0.9491510391235352,0.23302669823169708,1.3941653966903687,27.588823318481445,,
-8.25,-44.70000076293945,-56.849998474121094,-4.684668064117432,8.074951171875,78.3976058959961,0.9739184379577637,0.3384879231452942,1.4069485664367676,27.588823318481445,,
,,,-4.502831935882568,7.988818168640137,78.3976058959961,1.0117353200912476,0.44900915026664734,1.4165359735488892,27.588823318481445,,
,,,-4.452588081359863,7.811767578125,78.3976058959961,1.0506174564361572,0.5566009283065796,1.43437922000885,27.588823318481445,,
,,,-4.297070503234863,7.84765625,78.3976058959961,1.0932281017303467,0.6604642271995544,1.4631413221359253,27.494705200195312,,
-8.25,-45.45000076293945,-55.5,-4.237256050109863,7.857226371765137,78.3976058959961,1.1398334503173828,0.7600665092468262,1.4911044836044312,27.682941436767578,,
,,,-4.045849800109863,7.87158203125,78.3976058959961,1.202950358390808,0.8514129519462585,1.5084151029586792,27.588823318481445,,
,,,-3.9190430641174316,7.833300590515137,78.3976058959961,1.267931580543518,0.9108014702796936,1.519334077835083,27.588823318481445,,
,,,-3.6773924827575684,8.06298828125,78.3976058959961,1.3235915899276733,0.9550099968910217,1.5161383152008057,27.588823318481445,,
-9.449999809265137,-45.75,-55.349998474121094,-3.529052734375,8.115625381469727,78.3976058959961,1.3683327436447144,0.9821742177009583,1.5052193403244019,27.588823318481445,98350.328125,24.450000762939453
,,,-3.490771532058716,8.2783203125,78.3976058959961,1.4144054651260376,1.002147912979126,1.4839140176773071,27.588823318481445,,
,,,-3.478808641433716,8.318994522094727,78.3976058959961,1.4202643632888794,1.0018815994262695,1.4596792459487915,27.588823318481445,,
,,,-3.4500975608825684,8.115625381469727,78.3976058959961,1.4074811935424805,0.983239471912384,1.4335802793502808,27.588823318481445,,
-9.149999618530273,-46.20000076293945,-54.29999923706055,-3.323291063308716,8.185009956359863,78.3976058959961,1.3840453624725342,0.9456889033317566,1.4096118211746216,27.588823318481445,,
,,,-3.275439500808716,8.321386337280273,78.3976058959961,1.3361084461212158,0.8772456645965576,1.3747243881225586,27.588823318481445,,
,,,-3.3304686546325684,8.371630668640137,78.3976058959961,1.2761873006820679,0.8077371120452881,1.3379727602005005,27.682941436767578,,
,,,-3.2467284202575684,9.000879287719727,78.3976058959961,1.2277177572250366,0.6809706091880798,1.2924326658248901,27.588823318481445,,
-9.300000190734863,-47.099998474121094,-54.150001525878906,-3.2586913108825684,8.713769912719727,78.3976058959961,1.1390345096588135,0.48576077818870544,1.2351746559143066,27.588823318481445,,
,,,-3.481201171875,8.426660537719727,78.3976058959961,1.0868364572525024,0.3392868638038635,1.2008198499679565,27.588823318481445,,
,,,-3.3807129859924316,8.579785346984863,78.3976058959961,0.9957563877105713,0.1360875964164734,1.158209204673767,27.588823318481445,,
,,,-3.3974609375,8.823827743530273,78.3976058959961,0.9081383347511292,-0.06258431077003479,1.111603856086731,27.494705200195312,,
-8.699999809265137,-48.0,-52.95000076293945,-3.383105516433716,8.938672065734863,78.3976058959961,0.8005465865135193,-0.27270781993865967,1.0484869480133057,27.494705200195312,,
,,,-3.313720703125,8.950634956359863,78.3976058959961,0.6860305666923523,-0.4868260622024536,0.9789784550666809,27.588823318481445,,
,,,-3.3783202171325684,9.132471084594727,78.3976058959961,0.5571335554122925,-0.6956179738044739,0.9118667244911194,27.588823318481445,,
,,,-3.411816358566284,9.091796875,78.3976058959961,0.43169859051704407,-0.8977519869804382,0.8450213670730591,27.588823318481445,,
-9.0,-48.45000076293945,-54.0,-3.442919969558716,9.077441215515137,78.3976058959961,0.3065299689769745,-1.0807112455368042,0.7819044589996338,27.588823318481445,,
,,,-3.531445264816284,9.041552543640137,78.3976058959961,0.20399822294712067,-1.2444957494735718,0.7350327968597412,27.588823318481445,,
,,,-3.507519483566284,8.926709175109863,78.3976058959961,0.11238544434309006,-1.396828532218933,0.6977484822273254,27.588823318481445,,
,,,-3.466845750808716,8.833398818969727,78.3976058959961,0.03355584293603897,-1.5156055688858032,0.6689863801002502,27.588823318481445,,
-10.949999809265137,-48.150001525878906,-53.849998474121094,-3.411816358566284,8.807080268859863,78.3976058959961,-0.029561100527644157,-1.6005605459213257,0.6426210403442383,27.494705200195312,,
,,,-3.4046387672424316,8.708984375,78.3976058959961,-0.07936223596334457,-1.6610143184661865,0.6271747350692749,27.588823318481445,,
,,,-3.2969727516174316,8.618066787719727,78.3976058959961,-0.12277177721261978,-1.6959017515182495,0.6165220737457275,27.588823318481445,,
,,,-3.2371582984924316,8.500829696655273,78.3976058959961,-0.14168022572994232,-1.6990975141525269,0.6066683530807495,27.588823318481445,,
-10.949999809265137,-48.599998474121094,-53.54999923706055,-3.232372999191284,8.429052352905273,78.3976058959961,-0.15792551636695862,-1.6972333192825317,0.596548318862915,27.588823318481445,,
,,,-3.148632764816284,8.25439453125,78.3976058959961,-0.15792551636695862,-1.6855154037475586,0.5906893610954285,27.588823318481445,,
,,,-3.203662157058716,8.223291397094727,78.3976058959961,-0.1446097046136856,-1.670335292816162,0.5896241068840027,27.588823318481445,,
,,,-3.2850098609924316,8.180224418640137,78.3976058959961,-0.13182653486728668,-1.6554216146469116,0.5893577933311462,27.588823318481445,,
-11.550000190734863,-48.599998474121094,-53.849998474121094,-3.3902831077575684,8.15869140625,78.3976058959961,-0.1198422983288765,-1.638643741607666,0.5968146324157715,27.588823318481445,,
,,,-3.7013182640075684,7.96728515625,78.3976058959961,-0.11611387133598328,-1.6133437156677246,0.606934666633606,27.588823318481445,,
,,,-3.969287157058716,7.82373046875,78.3976058959961,-0.11957598477602005,-1.5976309776306152,0.6269083619117737,27.588823318481445,,
,,,-4.189404487609863,7.725634574890137,78.3976058959961,-0.13954970240592957,-1.5832499265670776,0.6519421339035034,27.682941436767578,,
-12.899999618530273,-48.150001525878906,-52.95000076293945,-4.359277248382568,7.617968559265137,78.3976058959961,-0.16431711614131927,-1.588576316833496,0.6796389818191528,27.588823318481445,,
,,,-4.411913871765137,7.419384956359863,78.3976058959961,-0.19973716139793396,-1.6120121479034424,0.7046727538108826,27.588823318481445,,
,,,-4.4501953125,7.357177734375,78.3976058959961,-0.2439456582069397,-1.667938470840454,0.7270432710647583,27.588823318481445,,
,,,-4.4501953125,7.352392673492432,78.3976058959961,-0.2916162610054016,-1.7438386678695679,0.7424896359443665,27.588823318481445,,
-13.800000190734863,-48.900001525878906,-54.29999923706055,-4.392773628234863,7.359570503234863,78.3976058959961,-0.34434688091278076,-1.8415766954421997,0.7528759837150574,27.588823318481445,,
,,,-4.325781345367432,7.625146389007568,78.3976058959961,-0.40586593747138977,-1.9425104856491089,0.756870687007904,27.494705200195312,,
,,,-4.225293159484863,7.711279392242432,78.3976058959961,-0.46525445580482483,-2.0357213020324707,0.7584686279296875,27.588823318481445,,
,,,-4.136767387390137,7.720849514007568,78.3976058959961,-0.5320998430252075,-2.114018201828003,0.761131763458252,27.588823318481445,,
-13.800000190734863,-48.150001525878906,-54.599998474121094,-3.9549317359924316,7.6083984375,78.3976058959961,-0.591754674911499,-2.172075033187866,0.7717844247817993,27.588823318481445,98350.2265625,24.450000762939453
,,,-3.902294874191284,7.524658203125,78.3976058959961,-0.651675820350647,-2.2186803817749023,0.7821707725524902,27.588823318481445,,
,,,-3.792236328125,7.414599418640137,78.3976058959961,-0.703607439994812,-2.2636878490448,0.7936223745346069,27.494705200195312,,
,,,-3.6773924827575684,7.4169921875,78.3976058959961,-0.7619307041168213,-2.3129563331604004,0.8085360527038574,27.588823318481445,,
-15.75,-49.650001525878906,-54.150001525878906,-3.686962842941284,7.531836032867432,78.3976058959961,-0.8282434344291687,-2.3808670043945312,0.8165255188941956,27.588823318481445,,
,,,-3.624755859375,7.460058689117432,78.3976058959961,-0.898817241191864,-2.474876642227173,0.8250476717948914,27.588823318481445,,
,,,-3.5816893577575684,7.44091796875,78.3976058959961,-0.9574068188667297,-2.563293695449829,0.8258466124534607,27.588823318481445,,
,,,-3.579296827316284,7.467236518859863,78.3976058959961,-0.9965553283691406,-2.6684885025024414,0.8282434344291687,27.494705200195312,,
-17.25,-46.95000076293945,-54.29999923706055,-3.383105516433716,7.53662109375,78.3976058959961,-0.9984195232391357,-2.7877981662750244,0.8255802989006042,27.588823318481445,,
,,,-3.399853467941284,7.211230278015137,78.3976058959961,-1.0008163452148438,-2.8908627033233643,0.8274444937705994,27.588823318481445,,
,,,-3.4979491233825684,7.591650485992432,78.3976058959961,-0.9824405312538147,-2.9603710174560547,0.8293087482452393,27.588823318481445,,
,,,-3.411816358566284,7.34521484375,78.3976058959961,-0.9422268271446228,-3.008308172225952,0.8333034515380859,27.494705200195312,,
-17.549999237060547,-48.75,-54.29999923706055,-3.3448243141174316,7.450488090515137,78.3976058959961,-0.9041435718536377,-3.0027153491973877,0.8412929773330688,27.588823318481445,,
,,,-3.375927686691284,7.043749809265137,78.3976058959961,-0.8330371379852295,-2.9776816368103027,0.8631308674812317,27.682941436767578,,
,,,-3.275439500808716,6.711181640625,78.3976058959961,-0.783236026763916,-2.920423746109009,0.9038772583007812,27.588823318481445,,
,,,-3.2706542015075684,6.225488185882568,78.3976058959961,-0.7145264148712158,-2.848252058029175,0.949683666229248,27.588823318481445,,
-19.350000381469727,-46.20000076293945,-55.349998474121094,-3.25390625,6.902587890625,78.3976058959961,-0.6562031507492065,-2.732138156890869,0.9909626841545105,27.682941436767578,,
,,,-2.897412061691284,7.10595703125,78.3976058959961,-0.6101304888725281,-2.5981810092926025,1.017594337463379,27.588823318481445,,
,,,-2.8184571266174316,7.58447265625,78.3976058959961,-0.6026735901832581,-2.4447829723358154,1.0263826847076416,27.494705200195312,,
,,,-2.548095703125,7.507910251617432,78.3976058959961,-0.5651230216026306,-2.24051833152771,1.036502718925476,27.588823318481445,,
-21.299999237060547,-48.0,-55.20000076293945,-2.502636671066284,7.747168064117432,78.3976058959961,-0.5589977502822876,-2.017345428466797,1.0418291091918945,27.588823318481445,,
,,,-1.9762694835662842,7.940966606140137,78.3976058959961,-0.5105282068252563,-1.8176082372665405,1.0514163970947266,27.588823318481445,,
,,,-1.926025390625,7.373925685882568,78.3976058959961,-0.4801681637763977,-1.6138763427734375,1.0711238384246826,27.588823318481445,,
,,,-1.9643065929412842,7.220800876617432,78.3976058959961,-0.43888914585113525,-1.4658044576644897,1.1100059747695923,27.682941436767578,,
-22.200000762939453,-46.95000076293945,-55.20000076293945,-2.048046827316284,6.976758003234863,78.3976058959961,-0.4266386032104492,-1.2940305471420288,1.155812382698059,27.588823318481445,,
,,,-2.150927782058716,7.244726657867432,78.3976058959961,-0.42024698853492737,-1.1584755182266235,1.2146682739257812,27.588823318481445,,
,,,-1.9523437023162842,8.077343940734863,78.3976058959961,-0.43995440006256104,-1.0767165422439575,1.2223914861679077,27.494705200195312,,
,,,-1.782470703125,8.515185356140137,78.3976058959961,-0.5041366219520569,-1.1171965599060059,1.2125377655029297,27.494705200195312,,
-22.5,-48.599998474121094,-55.20000076293945,-1.347021460533142,8.11083984375,78.3976058959961,-0.5368934869766235,-1.1195933818817139,1.1949609518051147,27.494705200195312,,
,,,-1.203466773033142,8.156298637390137,78.3976058959961,-0.562992513179779,-1.1262513399124146,1.171791434288025,27.588823318481445,,
,,,-1.069482445716858,7.577294826507568,78.3976058959961,-0.5989452004432678,-1.1651334762573242,1.1653997898101807,27.588823318481445,,
,,,-1.071874976158142,7.074853420257568,78.3976058959961,-0.5994778275489807,-1.180846095085144,1.1733893156051636,27.588823318481445,,
-24.75,-44.70000076293945,-54.900001525878906,-0.954638659954071,7.022216796875,78.3976058959961,-0.5715146064758301,-1.2287830114364624,1.1800471544265747,27.588823318481445,,
,,,-0.8900390863418579,6.694433689117432,78.3976058959961,-0.6636600494384766,-1.2490230798721313,1.2024177312850952,27.77705955505371,,
,,,-0.7225586175918579,7.842871189117432,78.3976058959961,-0.5169197916984558,-1.3526201248168945,1.1757861375808716,27.682941436767578,,
,,,-0.5790039300918579,7.809374809265137,78.3976058959961,-0.5576661825180054,-1.4426349401474,1.1611387729644775,27.588823318481445,,
-25.200000762939453,-47.400001525878906,-55.650001525878906,-0.863720715045929,7.761523246765137,78.3976058959961,-0.5328987836837769,-1.6634111404418945,1.136371374130249,27.588823318481445,,
,,,-0.9881347417831421,7.235156059265137,78.3976058959961,-0.5579324960708618,-1.7478333711624146,1.1155986785888672,27.682941436767578,,
,,,-0.870898425579071,6.893017768859863,78.3976058959961,-0.5848304033279419,-1.9566253423690796,1.0982880592346191,27.588823318481445,,
,,,-0.945068359375,6.756640434265137,78.3976058959961,-0.6215820908546448,-2.109224557876587,1.0697922706604004,27.588823318481445,,
-25.649999618530273,-46.04999923706055,-55.5,-1.2297852039337158,7.05810546875,78.3976058959961,-0.6303704977035522,-2.272210121154785,1.0325080156326294,27.588823318481445,98350.390625,24.459999084472656
,,,-1.41162109375,7.220800876617432,78.3976058959961,-0.6511431932449341,-2.4066996574401855,0.9880331754684448,27.588823318481445,,
,,,-1.4833984375,7.060498237609863,78.3976058959961,-0.6799052953720093,-2.54305362701416,0.9534120559692383,27.682941436767578,,
,,,-1.681982398033142,7.280615329742432,78.3976058959961,-0.6886937618255615,-2.6506452560424805,0.908670961856842,27.682941436767578,,
-28.5,-47.400001525878906,-55.650001525878906,-1.902099609375,7.5126953125,78.3976058959961,-0.695085346698761,-2.75823712348938,0.8684571981430054,27.588823318481445,,
,,,-1.954736351966858,7.292578220367432,78.3976058959961,-0.704939067363739,-2.8407950401306152,0.8402276635169983,27.682941436767578,,
,,,-1.870996117591858,7.196875095367432,78.3976058959961,-0.7099990248680115,-2.8676931858062744,0.8154602646827698,27.588823318481445,,
,,,-1.7800781726837158,7.211230278015137,78.3976058959961,-0.6924221515655518,-2.8618340492248535,0.7976170778274536,27.588823318481445,,
-28.350000381469727,-44.849998474121094,-55.650001525878906,-1.6604492664337158,7.003076076507568,78.3976058959961,-0.6796389818191528,-2.80830454826355,0.7851002216339111,27.588823318481445,,
,,,-1.45947265625,6.873877048492432,78.3976058959961,-0.6436862945556641,-2.7310729026794434,0.7808391451835632,27.588823318481445,,
,,,-1.1986815929412842,7.062890529632568,78.3976058959961,-0.5922873020172119,-2.594186305999756,0.7763118147850037,27.588823318481445,,
,,,-0.679492175579071,7.08203125,78.3976058959961,-0.5251755714416504,-2.448777675628662,0.7669907212257385,27.682941436767578,,
-31.5,-46.349998474121094,-55.650001525878906,-0.418701171875,7.01025390625,78.3976058959961,-0.46046075224876404,-2.2556984424591064,0.750745415687561,27.588823318481445,,
,,,-0.10048828274011612,7.096386909484863,78.3976058959961,-0.40453433990478516,-2.0575592517852783,0.7398264408111572,27.588823318481445,,
,,,-0.02392578125,7.280615329742432,78.3976058959961,-0.3789680004119873,-1.8519630432128906,0.7289075255393982,27.494705200195312,,
,,,-0.02392578125,7.283007621765137,78.3976058959961,-0.38296273350715637,-1.668471097946167,0.7235811948776245,27.588823318481445,,
-31.350000381469727,-43.650001525878906,-55.79999923706055,-0.011962890625,7.192090034484863,78.3976058959961,-0.4095943570137024,-1.5190677642822266,0.7169232964515686,27.588823318481445,,
,,,0.19379882514476776,7.373925685882568,78.3976058959961,-0.4354270100593567,-1.397094964981079,0.7062706351280212,27.588823318481445,,
,,,0.20815429091453552,7.483984470367432,78.3976058959961,-0.448210209608078,-1.3046832084655762,0.685231626033783,27.588823318481445,,
,,,-0.0071777342818677425,7.452880859375,78.3976058959961,-0.4820323586463928,-1.2479578256607056,0.6854979395866394,27.588823318481445,,
-32.400001525878906,-45.150001525878906,-55.20000076293945,-0.07416991889476776,7.4169921875,78.3976058959961,-0.5315671563148499,-1.2021514177322388,0.6860305666923523,27.682941436767578,,
,,,-0.3158203065395355,7.347607612609863,78.3976058959961,-0.5789714455604553,-1.1600735187530518,0.682834804058075,27.682941436767578,,
,,,-0.47612303495407104,7.220800876617432,78.3976058959961,-0.6362294554710388,-1.136904001235962,0.6932211518287659,27.588823318481445,,
,,,-0.538330078125,7.428955078125,78.3976058959961,-0.6932211518287659,-1.1518176794052124,0.7068032622337341,27.588823318481445,,
-33.599998474121094,-43.650001525878906,-55.95000076293945,-0.3780273497104645,7.58447265625,78.3976058959961,-0.7427559494972229,-1.1749871969223022,0.7190538048744202,27.588823318481445,,
,,,-0.03349609300494194,7.809374809265137,78.3976058959961,-0.777110755443573,-1.2290493249893188,0.7227822542190552,27.682941436767578,,
,,,0.22968749701976776,7.806982517242432,78.3976058959961,-0.8072044849395752,-1.3161348104476929,0.7185211777687073,27.588823318481445,,
,,,0.631640613079071,7.44091796875,78.3976058959961,-0.8210529088973999,-1.4247918128967285,0.7131948471069336,27.588823318481445,,
-34.20000076293945,-45.45000076293945,-54.75,0.8685058355331421,7.29736328125,78.3976058959961,-0.824248731136322,-1.5635426044464111,0.7105317115783691,27.588823318481445,,
,,,0.9977051019668579,7.072461128234863,78.3976058959961,-0.8388960957527161,-1.7214680910110474,0.7022758722305298,27.588823318481445,,
,,,0.906787097454071,6.952832221984863,78.3976058959961,-0.857804536819458,-1.8780620098114014,0.6854979395866394,27.682941436767578,,
,,,1.0072753429412842,7.029394626617432,78.3976058959961,-0.8860340714454651,-2.0405149459838867,0.6588663458824158,27.494705200195312,,
-34.79999923706055,-43.20000076293945,-55.349998474121094,1.0670897960662842,7.096386909484863,78.3976058959961,-0.8985509276390076,-2.177401542663574,0.6263757348060608,27.588823318481445,,
,,,1.1627929210662842,7.144238471984863,78.3976058959961,-0.9033446311950684,-2.286591053009033,0.5898904204368591,27.682941436767578,,
,,,1.045556664466858,7.141845703125,78.3976058959961,-0.8956214785575867,-2.365154266357422,0.5621935725212097,27.588823318481445,,
,,,0.801513671875,7.287793159484863,78.3976058959961,-0.8990835547447205,-2.4186840057373047,0.5355619192123413,27.588823318481445,,
-36.29999923706055,-43.79999923706055,-54.45000076293945,0.571826159954071,7.342822074890137,78.3976058959961,-0.9123993515968323,-2.4405219554901123,0.5235776901245117,27.588823318481445,,
,,,0.32539063692092896,7.187304496765137,78.3976058959961,-0.9307752251625061,-2.4418535232543945,0.518251359462738,27.588823318481445,,
,,,0.3541015684604645,7.278222560882568,78.3976058959961,-0.9627331495285034,-2.423743963241577,0.5070660710334778,27.682941436767578,,
,,,0.14833983778953552,6.668115139007568,78.3976058959961,-0.9957563877105713,-2.4032375812530518,0.506000816822052,27.588823318481445,,
-36.150001525878906,-42.900001525878906,-55.20000076293945,0.10048828274011612,6.488671779632568,78.3976058959961,-1.0301111936569214,-2.3409194946289062,0.5091966390609741,27.588823318481445,98350.46875,24.459999084472656
,,,-0.4139160215854645,6.526953220367432,78.3976058959961,-1.068993330001831,-2.3017711639404297,0.5107945203781128,27.588823318481445,,
,,,-0.528759777545929,6.790136814117432,78.3976058959961,-1.0894997119903564,-2.2748732566833496,0.5054681897163391,27.588823318481445,,
,,,-0.09091796725988388,7.077246189117432,78.3976058959961,-1.1145334243774414,-2.2186803817749023,0.49481552839279175,27.588823318481445,,
-38.400001525878906,-43.349998474121094,-53.70000076293945,0.035888671875,6.91455078125,78.3976058959961,-1.1427628993988037,-2.120143413543701,0.47803762555122375,27.588823318481445,,
,,,-0.009570312686264515,6.897802829742432,78.3976058959961,-1.1619377136230469,-2.041846513748169,0.47004812955856323,27.588823318481445,,
,,,-0.059814453125,7.027001857757568,78.3976058959961,-1.1779166460037231,-1.9259989261627197,0.46765127778053284,27.682941436767578,,
,,,-0.08852539211511612,7.180127143859863,78.3976058959961,-1.2008198499679565,-1.8106839656829834,0.45939549803733826,27.588823318481445,,
-39.0,-41.70000076293945,-54.599998474121094,0.03110351599752903,7.172949314117432,78.3976058959961,-1.2199946641921997,-1.6982985734939575,0.4559333622455597,27.682941436767578,,
,,,0.42109376192092896,7.192090034484863,78.3976058959961,-1.2183966636657715,-1.5600804090499878,0.4524712562561035,27.588823318481445,,
,,,0.610107421875,7.275830268859863,78.3976058959961,-1.2037492990493774,-1.4247918128967285,0.44661229848861694,27.588823318481445,,
,,,0.8062988519668579,7.314111232757568,78.3976058959961,-1.1653997898101807,-1.3022863864898682,0.4362259805202484,27.682941436767578,,
-39.29999923706055,-42.29999923706055,-54.45000076293945,0.9402831792831421,7.402636528015137,78.3976058959961,-1.1140007972717285,-1.1970914602279663,0.4221112132072449,27.588823318481445,,
,,,0.9139648675918579,7.414599418640137,78.3976058959961,-1.0460901260375977,-1.1108049154281616,0.41705119609832764,27.588823318481445,,
,,,1.024023413658142,7.376318454742432,78.3976058959961,-0.9829731583595276,-1.0189259052276611,0.4149206876754761,27.494705200195312,,
,,,1.057519555091858,7.424170017242432,78.3976058959961,-0.9179919958114624,-0.9187909960746765,0.413322776556015,27.588823318481445,,
-40.349998474121094,-40.5,-53.849998474121094,0.954638659954071,7.419384956359863,78.3976058959961,-0.8839035630226135,-0.8311729431152344,0.40879541635513306,27.682941436767578,,
,,,0.799121081829071,7.694531440734863,78.3976058959961,-0.8796424865722656,-0.7699202299118042,0.40559959411621094,27.682941436767578,,
,,,0.756054699420929,7.658642768859863,78.3976058959961,-0.9044098854064941,-0.7395601272583008,0.40160486102104187,27.494705200195312,,
,,,0.6866699457168579,7.498339653015137,78.3976058959961,-0.9440910220146179,-0.7390275001525879,0.39787644147872925,27.588823318481445,,
-41.25,-40.650001525878906,-54.0,0.7129882574081421,7.304541110992432,78.3976058959961,-0.99735426902771,-0.7550064921379089,0.39494696259498596,27.588823318481445,,
,,,0.851757824420929,7.038964748382568,78.3976058959961,-1.0351711511611938,-0.7712517976760864,0.39121854305267334,27.588823318481445,,
,,,1.012060523033142,6.950439453125,78.3976058959961,-1.0564764738082886,-0.8056066036224365,0.38349536061286926,27.588823318481445,,
,,,1.2226073741912842,7.027001857757568,78.3976058959961,-1.046889066696167,-0.8511466383934021,0.37630483508110046,27.682941436767578,,
-40.650001525878906,-40.5,-54.29999923706055,1.2895996570587158,7.184912204742432,78.3976058959961,-1.027181625366211,-0.8868330121040344,0.3637879490852356,27.682941436767578,,
,,,1.370947241783142,7.323681831359863,78.3976058959961,-0.9938921332359314,-0.9134646654129028,0.35020583868026733,27.588823318481445,,
,,,1.380517601966858,7.318896293640137,78.3976058959961,-0.9749836921691895,-0.9118667244911194,0.34834161400794983,27.588823318481445,,
,,,1.399658203125,7.570116996765137,78.3976058959961,-0.9739184379577637,-0.8961541056632996,0.3486079275608063,27.682941436767578,,
-42.150001525878906,-40.5,-54.29999923706055,1.3661620616912842,7.316504001617432,78.3976058959961,-0.9752500057220459,-0.8799088001251221,0.35526585578918457,27.682941436767578,,
,,,1.244140625,7.177734375,78.3976058959961,-0.9933595061302185,-0.843157172203064,0.37257638573646545,27.588823318481445,,
,,,1.215429663658142,7.079638481140137,78.3976058959961,-1.0181269645690918,-0.8325045108795166,0.3885553777217865,27.588823318481445,,
,,,1.2106444835662842,6.883447170257568,78.3976058959961,-1.0455574989318848,-0.7978833913803101,0.4018711745738983,27.588823318481445,,
-42.45000076293945,-39.75,-54.900001525878906,1.239355444908142,6.876269340515137,78.3976058959961,-1.0721890926361084,-0.7797738909721375,0.41172489523887634,27.588823318481445,,
,,,1.1986815929412842,6.72314453125,78.3976058959961,-1.0985543727874756,-0.7440875172615051,0.4175838232040405,27.682941436767578,,
,,,1.105371117591858,6.596337795257568,78.3976058959961,-1.1203923225402832,-0.6964169144630432,0.4242417514324188,27.588823318481445,,
,,,1.0383789539337158,6.584374904632568,78.3976058959961,-1.1361050605773926,-0.6532737016677856,0.43089964985847473,27.588823318481445,,
-42.75,-39.29999923706055,-54.599998474121094,0.9737793207168579,6.457568168640137,78.3976058959961,-1.1648671627044678,-0.6079999208450317,0.4354270100593567,27.588823318481445,,
,,,1.000097632408142,6.431250095367432,78.3976058959961,-1.191232442855835,-0.5701830387115479,0.4468786120414734,27.682941436767578,,
,,,0.935498058795929,6.574804782867432,78.3976058959961,-1.2045482397079468,-0.5291703343391418,0.4506070613861084,27.588823318481445,,
,,,1.009667992591858,6.538916110992432,78.3976058959961,-1.2205272912979126,-0.502272367477417,0.44954177737236023,27.588823318481445,,
-43.20000076293945,-38.25,-54.900001525878906,1.016845703125,6.488671779632568,78.3976058959961,-1.2309136390686035,-0.4607270658016205,0.46232497692108154,27.588823318481445,98350.8359375,24.469999313354492
,,,1.0551269054412842,6.287695407867432,78.3976058959961,-1.2516862154006958,-0.4306333363056183,0.47430920600891113,27.682941436767578,,
,,,1.107763648033142,6.146533012390137,78.3976058959961,-1.2705947160720825,-0.386691153049469,0.4873586893081665,27.588823318481445,,
,,,1.1938965320587158,6.177636623382568,78.3976058959961,-1.293497920036316,-0.34301528334617615,0.5044029355049133,27.588823318481445,,
-43.5,-38.25,-54.0,1.3541991710662842,6.247021675109863,78.3976058959961,-1.30814528465271,-0.308394193649292,0.5137239694595337,27.588823318481445,,
,,,1.610205054283142,6.19677734375,78.3976058959961,-1.3289179801940918,-0.2716425359249115,0.5126587152481079,27.588823318481445,,
,,,1.6604492664337158,6.290087699890137,78.3976058959961,-1.3438316583633423,-0.2572614848613739,0.5115934610366821,27.682941436767578,,
,,,1.79443359375,5.986230373382568,78.3976058959961,-1.3550169467926025,-0.24474461376667023,0.506000816822052,27.682941436767578,,
-43.5,-37.650001525878906,-54.29999923706055,1.894921898841858,5.938378810882568,78.3976058959961,-1.385377049446106,-0.24234776198863983,0.5017397403717041,27.588823318481445,,
,,,1.9044921398162842,5.892920017242432,78.3976058959961,-1.4088127613067627,-0.24980461597442627,0.4841628968715668,27.682941436767578,,
,,,1.799218773841858,5.773291110992432,78.3976058959961,-1.4538202285766602,-0.25859305262565613,0.4721786677837372,27.588823318481445,,
,,,1.7609374523162842,5.926415920257568,78.3976058959961,-1.5012245178222656,-0.2801646590232849,0.4487428367137909,27.682941436767578,,
-44.70000076293945,-36.900001525878906,-54.75,1.583886742591858,5.916845798492432,78.3976058959961,-1.559015154838562,-0.3025352358818054,0.4306333363056183,27.494705200195312,,
,,,1.4977538585662842,5.90966796875,78.3976058959961,-1.6128110885620117,-0.33475950360298157,0.4095943570137024,27.682941436767578,,
,,,1.4833984375,5.849853515625,78.3976058959961,-1.6823196411132812,-0.3795006275177002,0.3957459032535553,27.588823318481445,,
,,,1.4451172351837158,5.730224609375,78.3976058959961,-1.7414417266845703,-0.4101269841194153,0.3824301064014435,27.588823318481445,,
-44.400001525878906,-36.150001525878906,-55.04999923706055,1.488183617591858,5.67041015625,78.3976058959961,-1.8136135339736938,-0.47004812955856323,0.3837616741657257,27.588823318481445,,
,,,1.452294945716858,5.689550876617432,78.3976058959961,-1.8708714246749878,-0.5496766567230225,0.37017956376075745,27.588823318481445,,
,,,1.299169898033142,5.845068454742432,78.3976058959961,-1.9278631210327148,-0.6114620566368103,0.3512710928916931,27.682941436767578,,
,,,1.07666015625,6.110644340515137,78.3976058959961,-2.0112202167510986,-0.6857642531394958,0.33236265182495117,27.588823318481445,,
-44.54999923706055,-35.400001525878906,-55.650001525878906,0.995312511920929,6.19677734375,78.3976058959961,-2.1065614223480225,-0.7374296188354492,0.31292155385017395,27.588823318481445,,
,,,0.83740234375,6.151318550109863,78.3976058959961,-2.2045657634735107,-0.7749801874160767,0.2974752187728882,27.588823318481445,,
,,,0.918749988079071,6.108252048492432,78.3976058959961,-2.3089616298675537,-0.7928233742713928,0.28762152791023254,27.588823318481445,,
,,,0.827832043170929,6.019726753234863,78.3976058959961,-2.399775505065918,-0.8064055442810059,0.2892194092273712,27.588823318481445,,
-45.45000076293945,-34.20000076293945,-55.5,0.8134765625,5.962304592132568,78.3976058959961,-2.47434401512146,-0.8506140112876892,0.29534468054771423,27.588823318481445,,
,,,1.1340820789337158,5.897705078125,78.3976058959961,-2.515623092651367,-0.8982846140861511,0.302268922328949,27.682941436767578,,
,,,1.17236328125,5.892920017242432,78.3976058959961,-2.5347979068756104,-0.9488847255706787,0.3126552402973175,27.682941436767578,,
,,,1.3541991710662842,5.943163871765137,78.3976058959961,-2.5606305599212646,-0.9954900145530701,0.3187805116176605,27.588823318481445,,
-44.54999923706055,-34.349998474121094,-56.400001525878906,1.598242163658142,5.833105564117432,78.3976058959961,-2.5784735679626465,-1.0165290832519531,0.320644736289978,27.682941436767578,,
,,,1.9523437023162842,5.668017387390137,78.3976058959961,-2.605638027191162,-1.0210564136505127,0.31957948207855225,27.682941436767578,,
,,,2.215527296066284,5.426367282867432,78.3976058959961,-2.6221494674682617,-1.0032131671905518,0.3187805116176605,27.682941436767578,,
,,,2.4691405296325684,5.464648246765137,78.3976058959961,-2.6344001293182373,-0.9560752511024475,0.3094594478607178,27.682941436767578,,
-45.0,-32.400001525878906,-55.5,2.5409178733825684,5.490966796875,78.3976058959961,-2.647982120513916,-0.8977519869804382,0.30146995186805725,27.588823318481445,,
,,,2.79931640625,5.266064643859863,78.3976058959961,-2.6495800018310547,-0.8420919179916382,0.2886867821216583,27.588823318481445,,
,,,2.930908203125,5.170361518859863,78.3976058959961,-2.6298727989196777,-0.7819044589996338,0.27324044704437256,27.682941436767578,,
,,,2.988330125808716,5.065087795257568,78.3976058959961,-2.598447322845459,-0.7265106439590454,0.2583267390727997,27.588823318481445,,
-45.900001525878906,-32.400001525878906,-55.5,3.0218262672424316,5.086621284484863,78.3976058959961,-2.5577011108398438,-0.6647253036499023,0.24740776419639587,27.682941436767578,,
,,,3.1414551734924316,5.089013576507568,78.3976058959961,-2.514291524887085,-0.604537844657898,0.24021723866462708,27.588823318481445,,
,,,3.064892530441284,5.041162014007568,78.3976058959961,-2.475675582885742,-0.549410343170166,0.2300972193479538,27.682941436767578,,
,,,3.0912108421325684,4.964599609375,78.3976058959961,-2.4407882690429688,-0.495348185300827,0.2167814075946808,27.682941436767578,,
-46.650001525878906,-29.850000381469727,-56.400001525878906,3.170166015625,4.844970703125,78.3976058959961,-2.4085638523101807,-0.433829128742218,0.20799297094345093,27.588823318481445,98350.734375,24.469999313354492
,,,3.2706542015075684,4.553076267242432,78.3976058959961,-2.38619327545166,-0.3752395510673523,0.20106874406337738,27.588823318481445,,
,,,3.265869140625,4.5458984375,78.3976058959961,-2.3715460300445557,-0.3121226131916046,0.1952097862958908,27.588823318481445,,
,,,3.0816407203674316,4.42626953125,78.3976058959961,-2.374741792678833,-0.2705772817134857,0.17869818210601807,27.588823318481445,,
-47.099998474121094,-29.100000381469727,-55.95000076293945,3.22998046875,4.265966892242432,78.3976058959961,-2.388590097427368,-0.22210772335529327,0.16618132591247559,27.682941436767578,,
,,,3.265869140625,4.254004001617432,78.3976058959961,-2.4080312252044678,-0.2162487804889679,0.14381076395511627,27.588823318481445,,
,,,3.239550828933716,4.141552925109863,78.3976058959961,-2.4578323364257812,-0.1981392651796341,0.12090756744146347,27.682941436767578,,
,,,3.1414551734924316,4.079345703125,78.3976058959961,-2.509497880935669,-0.21891193091869354,0.0969391018152237,27.682941436767578,,
-47.54999923706055,-26.850000381469727,-56.70000076293945,3.143847703933716,3.9645018577575684,78.3976058959961,-2.5771420001983643,-0.22210772335529327,0.07563380897045135,27.588823318481445,,
,,,2.940478563308716,3.997997999191284,78.3976058959961,-2.662895917892456,-0.2162487804889679,0.05379587784409523,27.682941436767578,,
,,,2.940478563308716,3.9645018577575684,78.3976058959961,-2.757171869277954,-0.2186456173658371,0.031158998608589172,27.588823318481445,,
,,,2.813671827316284,4.074560642242432,78.3976058959961,-2.8631656169891357,-0.2047971785068512,0.0037284272257238626,27.682941436767578,,
-47.25,-26.399999618530273,-56.849998474121094,2.706005811691284,4.242041110992432,78.3976058959961,-2.9846060276031494,-0.18349187076091766,-0.022636879235506058,27.682941436767578,,
,,,1.79443359375,3.9046874046325684,78.3976058959961,-3.095393419265747,-0.1904160976409912,-0.019174767658114433,27.682941436767578,,
,,,1.957128882408142,4.191796779632568,78.3976058959961,-3.15265154838562,-0.13741916418075562,-0.0183758195489645,27.682941436767578,,
,,,2.115039110183716,3.909472703933716,78.3976058959961,-3.2607758045196533,-0.07084011286497116,-0.02849583514034748,27.682941436767578,,
-47.70000076293945,-25.200000762939453,-56.25,2.1246094703674316,3.694140672683716,78.3976058959961,-3.3771560192108154,0.05938851833343506,-0.03648532181978226,27.682941436767578,,
